acc_x[mg],acc_y[mg],acc_z[mg],gyro_x[dps],gyro_y[dps],gyro_z[dps]
83.000,-0.000,-1004.000,0.070,-0.770,0.140
87.489,-1.019,-1046.874,0.076,-0.740,0.204
79.857,-0.165,-955.259,0.093,-0.621,0.258
87.856,-0.513,-1052.495,0.281,-0.573,0.321
81.097,-0.898,-966.346,0.386,-0.450,0.408
87.612,0.441,-1032.159,0.462,-0.500,0.521
83.380,-0.421,-989.504,0.577,-0.395,0.466
84.412,-2.070,-1009.645,0.555,-0.427,0.421
84.415,-2.039,-1009.081,0.495,-0.426,0.424
82.154,-1.893,-993.600,0.385,-0.402,0.357
84.842,-2.222,-1015.268,0.244,-0.481,0.355
82.776,-1.315,-990.729,0.175,-0.490,0.311
85.444,-1.237,-1014.793,0.091,-0.477,0.287
84.160,-2.213,-996.551,-0.028,-0.393,0.380
84.275,-1.874,-1008.753,0.020,-0.341,0.421
84.000,-1.000,-1005.000,0.140,-0.210,0.420
83.560,-0.889,-1002.051,0.145,-0.132,0.367
86.156,-1.821,-1009.935,0.098,-0.203,0.244
84.546,-2.025,-998.912,-0.016,-0.201,0.157
83.985,-2.083,-1008.663,-0.114,-0.247,0.135
84.035,-1.705,-1000.448,-0.147,-0.274,0.144
85.361,-0.905,-1007.295,-0.135,-0.188,0.136
84.838,-1.007,-1004.286,-0.143,-0.139,0.143
83.897,-0.977,-1004.464,-0.205,-0.140,0.206
85.809,-1.793,-1004.908,-0.309,-0.134,0.220
85.891,-2.138,-1000.874,-0.526,-0.213,0.163
86.609,-1.934,-1004.293,-0.831,-0.400,0.105
87.004,-1.832,-1000.796,-1.235,-0.552,0.040
86.990,-0.578,-1005.228,-1.418,-0.659,-0.017
85.666,0.012,-1002.270,-1.400,-0.701,-0.078
85.000,-0.000,-1004.000,-1.400,-0.700,-0.070
86.984,0.013,-1005.457,-1.283,-0.705,-0.005
85.469,-0.026,-1004.346,-1.121,-0.647,0.001
85.398,0.032,-1005.686,-0.864,-0.622,0.003
85.835,-0.032,-1003.958,-0.725,-0.633,-0.006
84.897,0.028,-1004.017,-0.661,-0.640,0.010
86.302,-0.020,-1004.048,-0.546,-0.722,-0.016
85.905,0.008,-1004.998,-0.559,-0.771,-0.070
85.050,0.012,-1004.078,-0.435,-0.770,-0.005
84.159,-0.074,-1004.109,-0.297,-0.774,0.003
84.418,0.621,-1002.967,-0.202,-0.732,0.034
85.436,1.275,-1004.346,-0.030,-0.649,0.115
84.367,0.533,-1005.956,0.173,-0.646,0.179
84.118,-0.073,-1004.654,0.415,-0.716,0.321
85.198,0.012,-1005.034,0.493,-0.692,0.345
86.000,0.000,-1004.000,0.560,-0.700,0.350
85.157,0.009,-1004.692,0.685,-0.766,0.358
84.825,-0.035,-1005.440,0.790,-0.770,0.326
85.209,0.099,-1003.836,0.975,-0.773,0.445
84.450,-0.399,-1004.015,1.099,-0.763,0.498
84.024,-1.228,-1003.561,1.125,-0.780,0.493
85.383,-0.785,-1004.294,1.112,-0.755,0.478
85.957,0.030,-1004.966,1.044,-0.700,0.418
85.038,0.004,-1004.033,0.983,-0.763,0.421
84.998,0.083,-1004.639,0.973,-0.833,0.365
84.877,-1.159,-1005.738,1.025,-0.844,0.343
85.525,-2.618,-1005.413,1.070,-0.835,0.332
86.094,-1.180,-1004.311,1.004,-0.847,0.236
85.981,-1.373,-1003.868,0.868,-0.831,0.212
85.985,-1.904,-1004.098,0.753,-0.850,0.205
86.000,-1.000,-1005.000,0.630,-0.910,0.140
86.089,-1.863,-1005.048,0.506,-0.847,0.075
85.195,-2.090,-1004.944,0.393,-0.879,0.070
84.943,-1.971,-1004.466,0.254,-0.935,0.042
84.941,-1.964,-1003.031,0.181,-0.886,-0.048
85.084,-2.088,-1003.066,0.095,-0.943,-0.067
84.877,-1.883,-1004.209,-0.014,-0.980,-0.082
85.086,-2.087,-1005.048,0.002,-0.981,-0.141
86.020,-3.037,-1005.039,-0.061,-0.982,-0.077
85.084,-1.354,-1004.862,-0.096,-0.974,-0.055
85.644,-1.317,-1005.089,0.041,-0.994,-0.091
85.696,-2.518,-1004.088,0.069,-0.935,-0.040
84.687,-1.320,-1003.885,0.095,-0.910,-0.121
85.161,-1.199,-1003.799,0.147,-0.896,-0.117
84.890,-2.087,-1004.244,0.142,-0.834,-0.076
84.000,-2.000,-1006.000,0.210,-0.840,-0.140
83.839,-1.945,-1005.180,0.273,-0.786,-0.079
85.036,-2.125,-1004.828,0.327,-0.705,-0.068
83.756,-1.755,-1004.906,0.398,-0.707,-0.035
83.302,-2.630,-1004.801,0.432,-0.670,0.015
85.895,-2.785,-1004.603,0.398,-0.618,-0.008
85.715,-1.881,-1003.846,0.343,-0.635,0.003
84.998,-2.014,-1004.025,0.351,-0.628,-0.001
85.017,-1.999,-1003.998,0.349,-0.628,-0.001
84.926,-2.048,-1004.698,0.403,-0.640,0.049
85.155,-1.822,-1005.168,0.433,-0.576,0.132
84.402,-2.679,-1004.061,0.428,-0.561,0.130
83.894,-2.698,-1003.885,0.548,-0.536,0.173
83.992,-2.006,-1003.734,0.536,-0.487,0.202
84.078,-3.159,-1002.974,0.491,-0.578,0.132
85.000,-3.000,-1004.000,0.490,-0.630,0.140
84.219,-2.921,-1004.961,0.421,-0.624,0.197
84.231,-3.122,-1005.013,0.471,-0.685,0.274
86.370,-2.857,-1004.376,0.494,-0.707,0.266
84.623,-3.148,-1003.361,0.511,-0.696,0.343
84.564,-2.843,-1004.535,0.586,-0.703,0.435
86.021,-3.195,-1006.180,0.646,-0.697,0.424
84.970,-4.036,-1005.920,0.699,-0.702,0.493
85.932,-4.017,-1004.147,0.576,-0.764,0.430
85.357,-3.968,-1003.618,0.385,-0.828,0.353
84.678,-4.041,-1004.979,0.248,-0.886,0.318
85.239,-3.951,-1003.912,0.187,-0.927,0.224
84.793,-4.048,-1004.440,0.243,-0.879,0.214
85.117,-3.958,-1004.486,0.287,-0.832,0.204
84.951,-4.025,-1003.041,0.274,-0.847,0.214
85.000,-4.000,-1005.000,0.210,-0.910,0.210
84.980,-3.972,-1004.199,0.146,-0.918,0.144
85.701,-4.051,-1004.500,0.131,-0.857,0.179
85.760,-3.965,-1004.638,0.180,-0.799,0.268
84.402,-3.767,-1003.621,0.240,-0.753,0.275
85.666,-2.590,-1005.295,0.319,-0.785,0.299
85.760,-3.373,-1003.348,0.448,-0.754,0.363
85.006,-3.940,-1004.275,0.573,-0.698,0.428
85.059,-3.000,-1006.124,0.819,-0.638,0.612
84.044,-3.778,-1003.954,0.983,-0.560,0.814
84.626,-4.616,-1005.407,0.925,-0.575,0.858
85.099,-5.412,-1005.194,0.909,-0.510,0.800
84.979,-4.242,-1005.458,0.915,-0.500,0.746
84.927,-4.497,-1007.030,1.034,-0.458,0.675
85.124,-6.039,-1005.943,1.211,-0.338,0.628
86.000,-5.000,-1007.000,1.330,-0.280,0.630
85.158,-4.983,-1004.593,1.459,-0.153,0.570
84.872,-4.828,-1003.130,1.473,-0.135,0.548
85.017,-6.273,-1005.753,1.500,-0.110,0.598
85.323,-6.637,-1005.015,1.579,-0.033,0.685
86.052,-4.139,-1005.307,1.637,0.026,0.820
84.638,-4.226,-1005.720,1.800,0.072,0.945
85.158,-5.045,-1003.936,2.047,0.073,1.216
86.951,-5.905,-1004.880,2.169,0.138,1.463
86.993,-7.508,-1005.250,2.166,0.089,1.472
87.077,-9.597,-1003.974,2.187,0.059,1.482
86.774,-9.939,-1003.818,2.081,0.053,1.382
87.489,-10.705,-1003.753,1.847,-0.041,1.162
87.883,-12.011,-1004.051,1.611,-0.082,1.001
86.885,-9.622,-1003.938,1.452,-0.149,0.811
87.000,-10.000,-1004.000,1.330,-0.140,0.700
87.059,-11.151,-1004.958,1.201,-0.132,0.699
86.858,-10.004,-1004.295,1.150,-0.192,0.701
87.600,-10.274,-1004.015,1.018,-0.255,0.697
88.137,-9.278,-1005.652,1.016,-0.272,0.719
87.888,-9.318,-1005.548,1.170,-0.167,0.813
88.058,-10.015,-1004.774,1.187,-0.145,0.944
87.979,-10.053,-1003.975,1.190,-0.137,1.136
87.978,-10.989,-1004.879,1.128,-0.135,1.261
88.067,-10.193,-1005.312,1.054,-0.208,1.151
87.875,-10.402,-1003.809,1.051,-0.164,1.094
88.123,-11.709,-1004.129,1.048,-0.133,1.150
87.831,-12.327,-1003.116,1.042,-0.136,1.061
88.135,-13.081,-1003.319,0.930,-0.163,0.959
87.912,-11.707,-1003.892,0.746,-0.300,0.896
88.000,-11.000,-1003.000,0.700,-0.350,0.770
88.133,-11.159,-1004.740,0.762,-0.351,0.753
87.653,-9.533,-1005.133,0.844,-0.272,0.918
88.991,-7.874,-1005.184,1.149,-0.060,1.127
88.310,-6.224,-1006.150,1.494,0.014,1.499
88.319,-8.716,-1005.563,1.677,0.004,2.154
88.990,-13.796,-1006.247,1.982,0.105,2.558
89.052,-12.765,-1006.999,2.494,0.295,2.434
89.113,-11.827,-1006.103,3.045,0.417,2.372
87.775,-14.735,-1005.080,3.334,0.421,2.503
89.806,-13.918,-1004.748,3.437,0.424,2.524
88.334,-12.441,-1005.276,3.622,0.409,2.557
87.544,-13.646,-1005.666,3.755,0.454,2.803
90.389,-13.936,-1003.004,3.776,0.475,3.206
87.475,-14.130,-1003.480,3.693,0.329,3.544
88.000,-16.000,-1006.000,3.640,0.350,3.780
90.057,-18.642,-1004.179,3.654,0.481,3.806
89.636,-20.536,-1004.144,3.452,0.493,3.570
91.382,-22.165,-1002.024,3.159,0.470,3.383
92.097,-23.738,-1000.735,2.763,0.309,3.106
91.970,-23.843,-1002.162,2.130,0.033,2.594
91.998,-22.633,-1002.048,1.677,-0.178,2.154
91.986,-20.882,-1004.173,1.539,-0.287,1.875
91.114,-20.033,-1004.143,1.720,-0.410,1.813
89.993,-19.277,-1002.908,2.196,-0.490,2.025
90.643,-18.579,-1003.479,2.648,-0.510,2.379
91.102,-20.462,-1004.684,3.035,-0.666,2.711
91.117,-23.214,-1006.443,3.343,-0.645,2.795
92.457,-25.845,-1005.178,3.415,-0.435,2.567
92.980,-28.289,-1002.735,3.067,-0.436,2.168
93.000,-29.000,-1002.000,2.380,-0.630,1.610
93.124,-28.179,-1002.711,1.702,-0.881,1.110
92.077,-27.193,-1004.690,1.178,-0.980,0.742
92.568,-26.511,-1004.386,0.793,-0.978,0.422
92.838,-25.357,-1003.770,0.461,-0.963,0.317
91.455,-25.005,-1005.541,0.342,-0.873,0.246
90.978,-24.929,-1005.845,0.450,-0.841,0.213
91.002,-25.064,-1006.084,0.569,-0.838,0.205
91.004,-25.991,-1006.158,0.693,-0.776,0.139
90.976,-25.207,-1003.333,0.715,-0.709,0.200
91.045,-25.342,-1003.746,0.616,-0.694,0.176
90.852,-26.878,-1005.922,0.454,-0.705,0.097
91.358,-26.692,-1005.125,0.253,-0.694,0.041
92.144,-25.684,-1003.479,-0.034,-0.711,-0.013
91.909,-24.936,-1003.074,-0.402,-0.786,-0.089
91.000,-25.000,-1004.000,-0.630,-0.910,-0.210
90.074,-25.015,-1004.034,-0.756,-0.981,-0.210
89.919,-25.032,-1003.954,-0.789,-0.930,-0.261
90.447,-24.505,-1003.817,-0.719,-0.896,-0.260
91.609,-23.716,-1003.817,-0.685,-0.925,-0.162
92.037,-24.213,-1003.794,-0.559,-0.885,-0.127
91.918,-23.840,-1004.023,-0.282,-0.835,-0.049
90.910,-24.083,-1003.986,-0.059,-0.840,0.002
90.902,-24.987,-1003.993,-0.000,-0.839,0.002
91.997,-24.943,-1003.375,0.002,-0.889,-0.052
91.793,-25.192,-1001.781,-0.062,-0.996,-0.121
92.387,-24.323,-1002.452,-0.320,-1.155,-0.175
91.042,-24.232,-1002.755,-0.618,-1.348,-0.240
89.937,-25.214,-1003.159,-0.827,-1.525,-0.298
89.928,-24.871,-1002.784,-1.008,-1.705,-0.359
90.000,-24.000,-1002.000,-1.190,-1.820,-0.420
91.134,-23.936,-1003.844,-1.316,-1.935,-0.485
88.711,-24.124,-1003.346,-1.422,-2.080,-0.491
88.094,-23.792,-1002.751,-1.598,-2.100,-0.519
89.746,-24.324,-1002.297,-1.758,-2.125,-0.605
90.043,-23.315,-1002.337,-1.841,-2.185,-0.632
89.839,-21.843,-1005.547,-1.798,-2.158,-0.631
88.971,-22.017,-1004.851,-1.670,-2.093,-0.628
89.024,-21.999,-1004.841,-1.550,-1.970,-0.567
88.161,-22.044,-1006.214,-1.425,-1.889,-0.496
88.012,-21.858,-1004.271,-1.342,-1.903,-0.491
87.418,-22.309,-1004.104,-1.346,-1.842,-0.483
87.204,-21.136,-1005.130,-1.464,-1.839,-0.516
88.040,-19.972,-1004.661,-1.559,-1.893,-0.569
86.821,-21.163,-1003.954,-1.625,-1.805,-0.557
87.000,-21.000,-1004.000,-1.750,-1.820,-0.560
87.087,-20.141,-1003.950,-1.813,-1.892,-0.617
86.871,-19.174,-1004.698,-1.874,-1.839,-0.695
87.114,-19.008,-1004.965,-1.874,-1.782,-0.663
86.873,-18.607,-1004.920,-1.730,-1.709,-0.618
87.058,-17.841,-1006.496,-1.524,-1.666,-0.625
86.970,-18.026,-1006.727,-1.273,-1.586,-0.536
86.990,-18.032,-1004.869,-1.114,-1.543,-0.490
86.112,-18.955,-1004.004,-1.117,-1.607,-0.491
85.011,-18.340,-1004.639,-1.130,-1.611,-0.486
85.583,-17.652,-1005.858,-1.070,-1.616,-0.496
86.261,-18.400,-1004.793,-1.041,-1.575,-0.483
85.526,-17.345,-1003.690,-1.058,-1.516,-0.498
84.900,-17.224,-1005.544,-1.032,-1.438,-0.483
85.074,-18.021,-1005.950,-0.877,-1.311,-0.495
86.000,-17.000,-1006.000,-0.630,-1.190,-0.490
86.160,-16.004,-1006.039,-0.389,-1.063,-0.427
85.068,-16.624,-1005.993,-0.135,-1.001,-0.378
85.159,-17.739,-1004.930,0.010,-0.925,-0.287
84.370,-18.049,-1003.065,-0.072,-0.933,-0.312
84.218,-18.007,-1004.601,-0.308,-1.002,-0.354
85.075,-17.902,-1004.765,-0.537,-1.074,-0.358
85.032,-16.926,-1005.116,-0.711,-1.198,-0.424
85.964,-16.935,-1005.178,-0.771,-1.256,-0.421
85.296,-17.239,-1002.970,-0.757,-1.320,-0.419
84.741,-16.027,-1003.773,-0.863,-1.330,-0.416
85.189,-16.644,-1003.367,-0.954,-1.361,-0.453
84.816,-16.673,-1004.784,-1.009,-1.411,-0.503
85.131,-16.067,-1004.141,-1.056,-1.405,-0.483
84.885,-17.059,-1003.384,-1.053,-1.481,-0.493
84.000,-16.000,-1007.000,-1.120,-1.470,-0.490
83.889,-16.718,-1004.432,-1.183,-1.459,-0.488
84.850,-16.862,-1004.402,-1.236,-1.532,-0.493
84.556,-14.494,-1004.212,-1.332,-1.535,-0.486
83.669,-16.507,-1002.247,-1.500,-1.566,-0.509
84.234,-16.114,-1005.033,-1.656,-1.637,-0.608
83.750,-13.855,-1005.923,-1.675,-1.688,-0.716
82.984,-15.064,-1006.017,-1.601,-1.676,-0.695
83.006,-14.114,-1005.139,-1.417,-1.615,-0.634
82.944,-13.847,-1003.940,-1.223,-1.555,-0.577
83.155,-13.620,-1004.468,-1.097,-1.488,-0.506
82.336,-12.538,-1005.363,-0.971,-1.464,-0.484
82.229,-13.360,-1005.988,-0.873,-1.461,-0.493
83.058,-12.818,-1005.787,-0.827,-1.360,-0.489
81.789,-14.397,-1004.811,-0.757,-1.247,-0.488
82.000,-15.000,-1004.000,-0.700,-1.190,-0.420
82.181,-13.068,-1004.822,-0.704,-1.184,-0.351
81.577,-13.212,-1005.706,-0.613,-1.207,-0.359
83.119,-12.027,-1006.593,-0.431,-1.105,-0.303
81.891,-12.975,-1006.217,-0.258,-1.016,-0.278
81.125,-13.907,-1004.093,-0.060,-0.927,-0.264
82.091,-12.967,-1004.150,0.090,-0.731,-0.200
82.033,-14.057,-1005.069,0.065,-0.703,-0.212
82.968,-13.126,-1005.949,0.064,-0.704,-0.212
82.279,-12.717,-1006.096,0.137,-0.688,-0.205
81.771,-13.876,-1005.244,0.130,-0.723,-0.220
82.156,-13.964,-1004.085,0.185,-0.641,-0.174
81.834,-14.050,-1004.048,0.195,-0.659,-0.125
82.213,-13.955,-1005.184,0.119,-0.701,-0.159
83.122,-14.031,-1004.927,0.056,-0.707,-0.215
83.000,-14.000,-1005.000,-0.070,-0.770,-0.210
82.009,-13.151,-1005.029,-0.135,-0.768,-0.205
82.718,-12.753,-1004.979,-0.185,-0.822,-0.262
83.097,-13.790,-1004.375,-0.257,-0.845,-0.292
82.990,-13.666,-1003.422,-0.310,-0.861,-0.268
82.754,-12.759,-1004.297,-0.365,-0.928,-0.292
81.855,-13.207,-1005.001,-0.337,-0.901,-0.265
82.031,-14.025,-1005.009,-0.276,-0.913,-0.208
82.025,-13.141,-1005.011,-0.214,-0.914,-0.210
81.911,-11.902,-1004.985,-0.200,-0.849,-0.204
82.597,-12.871,-1004.338,-0.258,-0.836,-0.258
83.316,-12.442,-1003.353,-0.315,-0.840,-0.287
82.383,-12.204,-1004.466,-0.371,-0.843,-0.280
82.221,-13.159,-1004.880,-0.317,-0.828,-0.269
82.982,-13.027,-1005.108,-0.198,-0.762,-0.202
82.000,-14.000,-1005.000,-0.210,-0.770,-0.210
82.813,-13.303,-1003.972,-0.275,-0.777,-0.270
82.633,-11.924,-1004.231,-0.281,-0.751,-0.336
80.930,-12.652,-1003.193,-0.282,-0.831,-0.353
81.471,-13.103,-1005.584,-0.258,-0.807,-0.370
82.299,-12.929,-1006.265,-0.178,-0.769,-0.440
83.066,-13.067,-1003.640,-0.136,-0.757,-0.408
81.871,-12.945,-1005.166,-0.142,-0.701,-0.426
81.860,-12.025,-1005.147,-0.203,-0.829,-0.489
83.192,-12.706,-1003.835,-0.276,-0.863,-0.488
81.444,-13.289,-1005.211,-0.248,-0.774,-0.496
81.315,-12.414,-1006.039,-0.117,-0.779,-0.479
82.214,-11.573,-1005.885,0.116,-0.745,-0.517
81.898,-11.087,-1007.309,0.337,-0.679,-0.575
82.043,-13.443,-1005.441,0.420,-0.627,-0.645
82.000,-14.000,-1003.000,0.280,-0.700,-0.770
81.143,-12.041,-1003.922,-0.026,-0.829,-0.895
80.810,-12.865,-1003.857,-0.248,-0.849,-0.929
81.246,-12.019,-1004.565,-0.276,-0.804,-0.859
80.621,-10.484,-1004.662,-0.085,-0.731,-0.809
81.567,-11.499,-1005.163,0.153,-0.684,-0.593
81.778,-12.020,-1004.466,0.309,-0.608,-0.401
81.033,-11.999,-1003.054,0.347,-0.562,-0.421
81.994,-11.993,-1004.928,0.282,-0.627,-0.356
81.129,-12.073,-1004.826,0.328,-0.586,-0.340
81.614,-11.320,-1006.495,0.402,-0.499,-0.363
81.670,-11.157,-1005.140,0.460,-0.487,-0.316
80.966,-12.742,-1001.899,0.474,-0.517,-0.246
82.359,-12.772,-1003.547,0.275,-0.692,-0.207
81.851,-11.923,-1004.030,0.135,-0.761,-0.206
82.000,-12.000,-1005.000,0.210,-0.630,-0.140
82.132,-12.824,-1004.262,0.280,-0.623,-0.135
81.702,-13.839,-1003.604,0.237,-0.636,-0.147
82.863,-14.084,-1004.663,0.135,-0.653,-0.133
82.546,-13.698,-1004.755,-0.011,-0.752,-0.145
81.879,-12.480,-1004.870,-0.067,-0.766,-0.138
82.006,-12.094,-1004.979,0.017,-0.775,-0.135
82.028,-13.059,-1004.990,-0.005,-0.767,-0.064
82.926,-13.038,-1004.960,-0.006,-0.766,-0.064
83.170,-12.897,-1005.866,0.066,-0.833,-0.139
82.277,-13.211,-1005.320,0.064,-0.838,-0.094
81.501,-12.322,-1004.511,0.085,-0.851,-0.060
80.686,-12.250,-1005.008,0.034,-0.806,-0.076
81.360,-13.073,-1004.860,0.007,-0.778,-0.067
81.994,-11.761,-1005.053,0.081,-0.845,-0.071
82.000,-12.000,-1005.000,0.140,-0.770,-0.070
82.952,-13.111,-1004.950,0.205,-0.700,-0.069
82.346,-11.950,-1005.062,0.208,-0.704,-0.072
81.771,-13.258,-1004.706,0.246,-0.694,-0.067
82.133,-13.826,-1004.938,0.299,-0.706,-0.073
81.888,-12.932,-1004.546,0.256,-0.695,-0.067
82.052,-14.225,-1003.823,0.201,-0.704,-0.072
81.985,-12.811,-1004.092,0.215,-0.699,-0.069
81.988,-11.919,-1005.879,0.279,-0.698,-0.069
82.026,-13.000,-1006.238,0.229,-0.706,-0.073
81.961,-12.771,-1004.972,0.194,-0.685,-0.065
81.986,-13.742,-1004.870,0.226,-0.748,-0.078
82.039,-13.672,-1004.476,0.182,-0.753,-0.060
81.793,-12.889,-1003.801,0.120,-0.687,-0.081
80.955,-13.012,-1004.119,0.067,-0.705,-0.059
82.000,-13.000,-1005.000,0.140,-0.700,-0.000
82.205,-13.045,-1005.061,0.214,-0.697,-0.060
81.026,-12.827,-1004.821,0.154,-0.705,-0.078
81.139,-13.760,-1005.503,0.136,-0.693,-0.064
80.721,-13.621,-1005.602,0.139,-0.709,-0.074
81.435,-13.019,-1004.323,0.143,-0.688,-0.067
81.990,-14.266,-1003.947,0.136,-0.716,-0.072
82.029,-13.905,-1004.028,0.144,-0.770,-0.068
82.049,-13.016,-1004.922,0.207,-0.705,-0.006
81.771,-13.012,-1005.157,0.214,-0.692,0.017
82.960,-12.962,-1004.539,0.208,-0.705,-0.066
82.346,-13.046,-1005.537,0.210,-0.720,-0.028
82.095,-12.946,-1005.563,0.212,-0.801,-0.015
81.619,-13.047,-1004.649,0.200,-0.737,-0.083
81.155,-12.964,-1003.964,0.127,-0.708,-0.067
83.000,-13.000,-1005.000,0.070,-0.770,-0.070
82.208,-13.866,-1006.075,0.068,-0.766,-0.011
81.852,-14.198,-1005.075,0.074,-0.823,0.013
81.642,-13.320,-1005.368,0.063,-0.845,-0.014
80.556,-12.919,-1005.921,0.096,-0.841,0.016
81.491,-12.991,-1005.831,0.168,-0.825,-0.027
81.921,-13.105,-1005.879,0.217,-0.753,-0.075
80.925,-14.069,-1004.920,0.208,-0.697,-0.069
80.922,-14.066,-1004.053,0.208,-0.696,-0.070
81.932,-13.142,-1003.825,0.220,-0.760,-0.071
81.906,-12.851,-1004.619,0.154,-0.773,-0.069
82.218,-13.546,-1004.776,0.162,-0.772,-0.071
81.412,-13.931,-1004.966,0.248,-0.752,-0.069
81.220,-12.613,-1004.653,0.286,-0.674,-0.071
81.977,-13.257,-1004.050,0.274,-0.630,-0.069
81.000,-14.000,-1005.000,0.210,-0.700,-0.070
81.784,-13.003,-1004.922,0.146,-0.769,-0.071
82.290,-13.771,-1006.443,0.133,-0.767,-0.068
81.202,-13.978,-1006.712,0.151,-0.775,-0.073
81.239,-14.457,-1004.920,0.109,-0.778,-0.066
82.351,-14.913,-1004.961,0.047,-0.889,-0.074
81.657,-13.794,-1004.884,-0.012,-0.892,-0.066
81.049,-14.048,-1005.042,0.006,-0.842,-0.072
81.981,-14.037,-1005.063,0.069,-0.847,-0.072
81.879,-13.907,-1004.079,0.064,-0.714,-0.058
82.836,-14.132,-1004.289,0.121,-0.744,-0.129
82.473,-13.809,-1005.595,0.140,-0.748,-0.110
81.972,-14.401,-1005.524,0.165,-0.683,-0.057
81.737,-15.145,-1004.803,0.211,-0.704,-0.075
81.038,-14.891,-1005.065,0.124,-0.704,-0.068
82.000,-14.000,-1005.000,0.070,-0.770,-0.070
81.163,-13.938,-1004.900,0.065,-0.774,-0.070
80.914,-14.104,-1005.762,0.125,-0.768,-0.071
80.857,-13.825,-1005.954,0.115,-0.767,-0.068
81.887,-14.467,-1005.441,0.043,-0.780,-0.074
82.876,-15.164,-1004.368,0.092,-0.742,-0.064
80.523,-14.835,-1004.033,0.048,-0.706,-0.076
81.130,-13.946,-1005.084,0.002,-0.772,-0.065
81.138,-13.956,-1005.087,0.065,-0.707,-0.001
79.858,-14.173,-1004.006,0.128,-0.689,-0.053
81.292,-13.155,-1004.468,0.152,-0.711,-0.082
82.790,-13.424,-1004.954,0.125,-0.691,-0.061
82.513,-14.168,-1004.730,0.161,-0.705,-0.076
80.476,-14.052,-1005.021,0.104,-0.705,-0.067
81.308,-15.182,-1004.986,-0.009,-0.786,-0.071
82.000,-15.000,-1005.000,0.000,-0.840,-0.070
80.953,-14.021,-1004.980,0.002,-0.780,-0.069
81.894,-14.064,-1005.081,-0.002,-0.759,-0.071
81.413,-13.866,-1004.187,-0.000,-0.784,-0.070
80.906,-14.181,-1003.944,0.002,-0.751,-0.069
80.909,-13.772,-1005.255,-0.004,-0.803,-0.071
81.211,-14.280,-1004.621,0.005,-0.832,-0.068
81.986,-14.974,-1004.055,-0.004,-0.767,-0.071
81.032,-14.050,-1004.999,-0.069,-0.770,-0.072
81.780,-13.961,-1004.144,-0.019,-0.765,-0.061
81.500,-13.992,-1004.326,0.015,-0.817,-0.125
81.366,-14.051,-1005.059,-0.015,-0.850,-0.115
84.029,-13.905,-1004.845,0.026,-0.823,-0.051
81.811,-14.107,-1006.427,0.091,-0.737,-0.081
80.128,-13.913,-1005.660,0.142,-0.711,-0.064
82.000,-14.000,-1004.000,0.070,-0.840,-0.070
81.213,-14.972,-1004.854,0.001,-0.846,-0.137
80.746,-14.883,-1005.094,0.004,-0.837,-0.097
81.658,-15.345,-1004.722,-0.007,-0.810,-0.045
82.159,-13.917,-1004.896,0.008,-0.745,-0.117
81.676,-13.084,-1004.589,-0.009,-0.800,-0.124
80.874,-14.155,-1003.801,0.008,-0.844,-0.061
81.051,-13.982,-1004.080,-0.005,-0.839,-0.072
81.939,-14.005,-1004.981,-0.068,-0.839,-0.071
82.145,-13.899,-1004.947,-0.069,-0.846,-0.067
81.312,-14.733,-1005.005,-0.078,-0.795,-0.074
80.432,-15.012,-1004.133,-0.033,-0.754,-0.066
79.970,-15.133,-1004.060,0.010,-0.797,-0.075
81.606,-14.672,-1005.147,-0.005,-0.852,-0.064
81.823,-14.062,-1004.966,0.002,-0.831,-0.078
81.000,-15.000,-1005.000,0.000,-0.770,-0.140
81.986,-14.158,-1004.116,-0.060,-0.768,-0.085
81.184,-13.896,-1004.444,-0.082,-0.771,-0.046
81.511,-13.979,-1005.735,-0.054,-0.769,-0.133
81.819,-14.395,-1005.674,-0.091,-0.772,-0.108
80.682,-15.135,-1005.991,-0.037,-0.758,-0.063
81.133,-14.995,-1005.782,-0.003,-0.683,-0.070
80.966,-14.958,-1004.968,0.005,-0.708,-0.071
80.975,-14.031,-1004.986,0.069,-0.772,-0.072
81.044,-14.705,-1005.023,0.061,-0.705,-0.060
80.983,-15.279,-1004.725,0.130,-0.742,-0.126
80.618,-14.406,-1005.323,0.102,-0.781,-0.113
79.633,-13.795,-1005.760,0.085,-0.766,-0.054
80.377,-14.310,-1004.584,0.144,-0.770,-0.078
80.995,-14.978,-1005.263,0.054,-0.772,-0.067
81.000,-14.000,-1006.000,-0.000,-0.770,-0.070
81.935,-13.932,-1004.212,-0.061,-0.762,-0.071
81.385,-14.073,-1003.778,-0.075,-0.830,-0.070
80.734,-13.946,-1004.423,-0.098,-0.832,-0.066
80.930,-14.013,-1005.011,-0.167,-0.879,-0.096
79.411,-14.017,-1004.642,-0.109,-0.895,-0.154
80.571,-13.959,-1005.141,-0.066,-0.838,-0.133
81.977,-14.030,-1004.928,-0.072,-0.916,-0.142
81.027,-14.064,-1004.886,-0.135,-0.914,-0.142
81.095,-13.032,-1006.158,-0.150,-0.903,-0.135
80.220,-13.717,-1004.228,-0.125,-0.918,-0.148
80.024,-13.605,-1004.618,-0.162,-0.902,-0.130
79.783,-13.044,-1006.177,-0.088,-0.917,-0.150
80.389,-14.305,-1005.903,0.029,-0.900,-0.131
80.895,-13.895,-1005.880,0.073,-0.823,-0.146
80.000,-14.000,-1004.000,0.070,-0.700,-0.140
80.950,-13.205,-1004.640,0.066,-0.692,-0.073
80.232,-13.276,-1006.085,0.118,-0.714,-0.075
80.472,-15.244,-1005.565,0.187,-0.652,-0.054
80.821,-14.157,-1006.107,0.220,-0.623,-0.116
79.830,-14.456,-1005.375,0.203,-0.634,-0.120
81.459,-14.842,-1004.977,0.216,-0.627,-0.073
81.947,-14.001,-1004.987,0.206,-0.633,-0.142
81.045,-14.928,-1004.981,0.144,-0.694,-0.077
80.918,-15.136,-1005.051,0.087,-0.760,-0.056
81.160,-14.339,-1004.719,0.013,-0.777,-0.087
80.363,-13.761,-1004.956,0.003,-0.761,-0.050
80.132,-14.237,-1004.596,-0.023,-0.780,-0.105
81.404,-13.758,-1005.324,-0.081,-0.759,-0.143
81.995,-14.218,-1005.958,-0.067,-0.782,-0.140
81.000,-15.000,-1005.000,-0.070,-0.840,-0.140
79.959,-14.015,-1004.934,-0.072,-0.775,-0.142
80.796,-14.753,-1005.056,-0.067,-0.818,-0.094
80.999,-15.031,-1004.753,-0.075,-0.821,-0.048
81.089,-15.122,-1004.810,-0.064,-0.737,-0.112
80.777,-14.630,-1004.991,-0.079,-0.799,-0.142
81.316,-13.980,-1006.232,-0.052,-0.738,-0.142
81.922,-13.968,-1005.881,0.079,-0.628,-0.139
80.067,-13.919,-1004.093,0.079,-0.693,-0.138
80.760,-15.077,-1003.820,-0.052,-0.760,-0.150
80.509,-13.572,-1004.549,-0.079,-0.815,-0.083
80.101,-13.253,-1004.937,-0.044,-0.858,-0.096
81.261,-14.233,-1004.699,0.045,-0.808,-0.158
79.240,-13.978,-1005.080,0.055,-0.764,-0.130
79.272,-13.890,-1004.925,-0.001,-0.772,-0.146
81.000,-13.000,-1005.000,0.070,-0.770,-0.140
81.003,-14.736,-1005.964,0.081,-0.769,-0.076
81.100,-14.614,-1005.316,0.009,-0.776,-0.066
80.338,-13.459,-1004.604,0.025,-0.732,-0.072
80.162,-14.739,-1004.953,0.122,-0.683,-0.070
81.376,-14.984,-1004.715,0.122,-0.713,-0.067
80.665,-14.926,-1005.062,0.063,-0.690,-0.078
80.036,-13.926,-1004.972,0.071,-0.706,-0.145
80.955,-13.953,-1004.967,0.068,-0.771,-0.145
81.033,-14.064,-1005.132,0.127,-0.713,-0.078
80.982,-14.449,-1004.073,0.117,-0.694,-0.068
80.982,-15.407,-1003.760,0.004,-0.700,-0.069
80.814,-14.643,-1003.746,0.030,-0.706,-0.072
79.603,-15.281,-1004.203,0.073,-0.683,-0.067
80.344,-14.829,-1005.064,0.075,-0.629,-0.072
82.000,-15.000,-1005.000,0.140,-0.700,-0.070
80.217,-15.315,-1005.860,0.144,-0.709,-0.066
80.490,-13.042,-1005.530,0.138,-0.681,-0.083
81.344,-14.307,-1004.238,0.111,-0.759,-0.017
80.709,-14.720,-1005.731,0.045,-0.739,-0.023
81.186,-14.050,-1005.322,0.091,-0.703,-0.084
80.872,-15.172,-1005.184,0.054,-0.788,-0.065
81.050,-14.989,-1005.974,0.078,-0.763,-0.071
81.073,-15.056,-1005.014,0.141,-0.702,-0.070
80.038,-13.309,-1005.852,0.169,-0.655,-0.073
80.631,-13.908,-1004.781,0.386,-0.559,-0.029
80.806,-15.722,-1003.161,0.359,-0.603,0.022
79.449,-14.419,-1004.540,0.261,-0.628,-0.034
80.665,-15.444,-1004.880,0.274,-0.646,-0.075
82.010,-14.702,-1005.075,0.203,-0.704,-0.069
81.000,-14.000,-1005.000,0.210,-0.700,-0.070
80.881,-14.181,-1004.880,0.151,-0.705,-0.074
81.809,-13.532,-1005.292,0.135,-0.641,-0.020
81.718,-15.234,-1003.830,0.108,-0.662,0.013
80.118,-13.740,-1004.702,0.069,-0.717,-0.012
80.370,-13.462,-1005.899,0.189,-0.690,0.012
80.988,-15.219,-1004.689,0.197,-0.705,-0.015
81.061,-14.955,-1005.108,0.138,-0.698,-0.072
81.995,-14.092,-1006.015,0.139,-0.697,-0.071
81.193,-13.690,-1005.183,0.147,-0.755,-0.069
80.960,-15.110,-1004.697,0.089,-0.787,-0.070
80.543,-14.127,-1004.906,0.090,-0.725,-0.071
79.811,-14.604,-1004.720,0.166,-0.697,-0.068
80.031,-14.630,-1005.053,0.122,-0.697,-0.072
80.067,-14.207,-1004.956,0.154,-0.704,-0.069
81.000,-16.000,-1005.000,0.210,-0.700,-0.070
80.251,-14.236,-1005.045,0.203,-0.633,-0.072
79.562,-14.512,-1004.877,0.274,-0.673,-0.066
81.439,-15.263,-1004.980,0.216,-0.748,-0.076
81.769,-14.901,-1004.552,0.076,-0.784,-0.061
80.702,-14.941,-1005.255,0.092,-0.745,-0.082
81.143,-15.205,-1005.994,0.152,-0.696,-0.053
80.953,-15.988,-1006.027,0.215,-0.699,-0.001
80.952,-15.051,-1006.063,0.217,-0.697,-0.065
81.147,-15.009,-1005.038,0.092,-0.759,-0.077
80.738,-14.801,-1005.445,0.057,-0.774,-0.064
81.326,-15.768,-1005.989,0.077,-0.774,-0.074
80.560,-15.534,-1005.501,0.079,-0.747,-0.068
81.539,-15.217,-1004.709,0.174,-0.688,-0.069
81.825,-15.943,-1005.214,0.205,-0.707,-0.074
81.000,-15.000,-1006.000,0.140,-0.770,-0.140
81.208,-15.978,-1005.002,0.078,-0.781,-0.149
79.759,-14.560,-1005.806,0.056,-0.702,-0.082
81.652,-14.207,-1005.301,0.119,-0.746,-0.066
80.677,-15.386,-1004.709,0.143,-0.750,-0.072
79.047,-14.805,-1004.581,0.144,-0.685,-0.069
81.404,-15.060,-1003.974,0.130,-0.705,-0.071
80.929,-15.004,-1005.082,0.067,-0.699,-0.070
80.986,-15.045,-1005.048,0.068,-0.700,-0.070
80.230,-14.073,-1004.897,0.073,-0.694,-0.071
80.381,-14.645,-1004.920,0.068,-0.752,-0.069
81.360,-14.995,-1004.735,0.068,-0.748,-0.072
80.740,-15.460,-1004.829,0.089,-0.678,-0.068
81.128,-15.698,-1005.016,0.157,-0.714,-0.072
80.963,-13.864,-1004.912,0.129,-0.690,-0.069
81.000,-15.000,-1004.000,0.070,-0.630,-0.070
80.884,-15.079,-1003.921,0.072,-0.625,-0.072
82.574,-15.612,-1004.621,0.025,-0.678,-0.066
82.236,-15.761,-1005.662,-0.049,-0.744,-0.077
80.331,-14.828,-1005.346,-0.094,-0.803,-0.058
81.253,-16.643,-1004.950,-0.182,-0.859,-0.094
79.512,-15.526,-1006.080,-0.309,-0.934,-0.145
80.169,-15.058,-1004.885,-0.430,-1.057,-0.140
80.206,-15.079,-1004.906,-0.552,-1.056,-0.140
78.532,-14.731,-1005.292,-0.579,-0.985,-0.137
81.569,-15.511,-1003.765,-0.461,-0.982,-0.149
80.907,-13.882,-1004.822,-0.385,-0.953,-0.103
80.188,-14.964,-1006.139,-0.284,-0.871,-0.058
80.931,-15.892,-1005.722,-0.090,-0.839,-0.084
79.970,-14.934,-1004.841,-0.078,-0.835,-0.149
81.000,-15.000,-1004.000,-0.070,-0.770,-0.140
80.234,-14.929,-1004.801,-0.056,-0.765,-0.069
79.701,-15.261,-1005.237,-0.144,-0.778,-0.126
80.700,-14.066,-1004.469,-0.087,-0.759,-0.110
81.153,-14.631,-1005.452,-0.082,-0.784,-0.051
80.616,-14.621,-1005.811,-0.026,-0.744,-0.081
80.052,-14.233,-1005.983,0.080,-0.695,-0.064
81.042,-16.061,-1004.856,0.072,-0.701,-0.072
80.120,-15.091,-1003.945,0.137,-0.700,-0.071
79.711,-14.989,-1004.947,0.091,-0.697,-0.066
80.929,-13.806,-1004.615,0.053,-0.740,-0.075
80.519,-12.933,-1005.604,0.081,-0.795,-0.065
79.730,-14.606,-1005.169,0.076,-0.730,-0.075
80.328,-13.582,-1003.683,0.174,-0.703,-0.066
80.968,-14.269,-1004.128,0.207,-0.692,-0.073
80.000,-15.000,-1005.000,0.210,-0.630,-0.070
80.749,-14.845,-1005.147,0.273,-0.634,-0.009
81.386,-15.966,-1004.019,0.285,-0.574,0.013
80.036,-15.414,-1004.439,0.276,-0.588,-0.045
80.474,-14.829,-1004.824,0.285,-0.653,-0.079
81.057,-15.251,-1004.955,0.275,-0.613,-0.065
81.013,-16.188,-1004.740,0.285,-0.646,-0.073
80.967,-15.918,-1004.026,0.276,-0.702,-0.069
80.073,-15.018,-1004.965,0.213,-0.701,-0.069
79.807,-15.042,-1004.897,0.211,-0.695,-0.072
80.834,-14.825,-1005.666,0.169,-0.743,-0.067
80.541,-15.650,-1005.236,0.122,-0.789,-0.074
80.005,-15.769,-1005.121,0.156,-0.738,-0.065
81.402,-14.809,-1005.786,0.121,-0.692,-0.075
80.743,-15.053,-1003.782,0.063,-0.705,-0.066
80.000,-15.000,-1005.000,0.000,-0.770,-0.070
80.947,-15.798,-1006.111,-0.066,-0.835,-0.133
80.935,-16.322,-1005.122,-0.072,-0.842,-0.144
81.210,-15.124,-1004.790,-0.069,-0.839,-0.138
80.336,-15.399,-1004.806,-0.070,-0.837,-0.139
80.259,-16.182,-1004.806,-0.070,-0.854,-0.145
80.984,-15.832,-1005.026,-0.070,-0.925,-0.128
79.927,-14.947,-1004.972,-0.070,-0.904,-0.069
79.958,-14.961,-1004.939,-0.070,-0.839,-0.133
80.085,-15.118,-1005.944,-0.074,-0.898,-0.157
79.852,-14.757,-1005.133,-0.027,-0.882,-0.080
80.457,-15.691,-1005.155,0.017,-0.784,-0.073
81.283,-15.786,-1005.811,-0.014,-0.773,-0.064
80.614,-14.638,-1004.625,0.011,-0.765,-0.076
80.074,-13.983,-1005.150,-0.007,-0.774,-0.066
81.000,-15.000,-1005.000,0.000,-0.770,-0.070
80.143,-16.062,-1004.819,0.068,-0.706,-0.079
80.466,-15.131,-1005.947,0.061,-0.700,-0.005
81.544,-15.482,-1005.305,0.117,-0.666,-0.039
79.829,-16.252,-1004.229,0.142,-0.610,-0.079
79.028,-15.674,-1003.902,0.145,-0.647,-0.070
80.320,-14.864,-1005.245,0.132,-0.613,-0.062
81.013,-15.044,-1004.919,0.147,-0.559,0.004
81.001,-15.057,-1004.904,0.274,-0.561,0.002
80.997,-14.748,-1005.962,0.286,-0.552,-0.004
81.028,-16.062,-1005.757,0.282,-0.611,0.004
80.584,-14.831,-1005.599,0.248,-0.632,0.000
79.671,-14.332,-1004.224,0.198,-0.648,-0.017
80.245,-16.512,-1005.627,0.214,-0.715,-0.087
79.827,-15.739,-1005.728,0.210,-0.693,-0.062
80.000,-15.000,-1004.000,0.210,-0.700,-0.070
81.985,-15.881,-1004.029,0.148,-0.765,-0.140
80.515,-16.165,-1004.330,0.136,-0.772,-0.089
80.213,-15.367,-1006.197,0.113,-0.772,-0.060
81.430,-14.834,-1004.292,0.024,-0.763,-0.076
80.533,-15.247,-1004.821,-0.005,-0.791,-0.066
79.928,-16.206,-1006.909,0.009,-0.842,-0.072
80.045,-15.898,-1004.939,0.074,-0.763,-0.069
80.947,-14.954,-1005.967,0.073,-0.763,-0.069
81.053,-16.665,-1004.396,0.063,-0.842,-0.071
81.009,-16.649,-1004.709,0.084,-0.790,-0.068
80.545,-15.547,-1006.450,0.029,-0.766,-0.072
79.775,-16.394,-1005.428,-0.009,-0.768,-0.068
80.082,-15.549,-1006.055,0.008,-0.774,-0.072
80.022,-15.096,-1004.784,-0.010,-0.765,-0.069
81.000,-16.000,-1005.000,-0.140,-0.770,-0.070
81.136,-15.182,-1005.067,-0.213,-0.839,-0.071
80.737,-14.784,-1005.544,-0.159,-0.790,-0.067
81.439,-15.261,-1005.744,-0.101,-0.765,-0.075
79.840,-14.657,-1004.072,-0.030,-0.748,-0.063
79.100,-15.538,-1005.622,0.005,-0.683,-0.080
80.142,-15.822,-1005.684,-0.001,-0.707,-0.055
80.001,-15.009,-1005.023,0.000,-0.698,0.000
80.910,-15.946,-1005.058,-0.000,-0.699,-0.064
81.174,-15.976,-1004.725,0.001,-0.703,-0.086
80.747,-16.725,-1005.859,-0.002,-0.700,-0.009
81.299,-16.328,-1005.069,0.004,-0.673,-0.028
80.433,-14.319,-1005.208,-0.007,-0.608,-0.089
80.017,-15.595,-1005.884,0.015,-0.645,-0.056
79.942,-15.837,-1004.894,0.076,-0.621,-0.082
80.000,-15.000,-1005.000,0.070,-0.630,-0.140
80.939,-15.885,-1005.001,0.067,-0.703,-0.080
80.965,-16.076,-1005.027,0.074,-0.640,-0.061
81.162,-15.950,-1004.660,0.065,-0.664,-0.077
80.394,-16.026,-1005.304,0.075,-0.715,-0.064
80.198,-15.975,-1005.889,0.065,-0.692,-0.074
81.037,-16.026,-1006.027,0.074,-0.703,-0.068
79.900,-15.969,-1005.947,0.068,-0.699,-0.071
79.906,-15.077,-1005.035,0.068,-0.699,-0.071
80.976,-14.805,-1005.009,0.081,-0.701,-0.068
80.396,-15.795,-1004.639,0.011,-0.698,-0.072
79.694,-16.011,-1005.577,0.032,-0.702,-0.068
80.465,-16.045,-1005.118,0.067,-0.696,-0.072
81.056,-15.917,-1004.018,-0.026,-0.711,-0.069
81.001,-16.107,-1006.287,0.017,-0.780,-0.070
81.000,-17.000,-1005.000,0.070,-0.770,-0.070
80.958,-17.066,-1003.747,0.005,-0.701,-0.071
81.153,-16.351,-1005.731,0.007,-0.745,-0.064
80.274,-15.239,-1005.756,-0.073,-0.816,-0.112
80.242,-14.995,-1005.997,-0.177,-0.856,-0.132
81.289,-14.914,-1005.430,-0.098,-0.811,-0.038
80.740,-15.172,-1004.959,-0.082,-0.773,-0.097
80.001,-16.036,-1004.988,-0.141,-0.845,-0.136
80.907,-16.006,-1004.976,-0.078,-0.845,-0.071
81.243,-16.060,-1005.089,-0.005,-0.779,-0.078
80.067,-15.344,-1004.587,-0.001,-0.764,-0.012
80.474,-14.854,-1005.528,0.024,-0.774,-0.031
81.153,-15.025,-1005.506,0.113,-0.768,-0.079
80.815,-15.153,-1004.859,0.129,-0.763,-0.078
79.850,-16.076,-1005.008,0.063,-0.687,-0.150
80.000,-15.000,-1005.000,0.070,-0.700,-0.140
81.039,-14.699,-1005.854,0.072,-0.773,-0.076
80.134,-16.859,-1006.164,0.105,-0.712,-0.062
80.510,-15.930,-1005.207,0.208,-0.702,-0.084
81.115,-14.629,-1004.544,0.172,-0.687,-0.030
81.010,-15.168,-1005.249,0.150,-0.730,-0.011
80.835,-15.003,-1005.926,0.222,-0.763,-0.081
79.988,-16.102,-1004.936,0.207,-0.697,-0.068
80.910,-16.090,-1004.964,0.207,-0.699,-0.069
81.182,-15.696,-1005.058,0.220,-0.698,-0.069
80.276,-17.050,-1004.753,0.158,-0.709,-0.108
79.746,-16.294,-1004.865,0.134,-0.680,-0.164
80.498,-16.153,-1004.762,0.141,-0.744,-0.103
80.857,-15.595,-1005.013,0.142,-0.749,-0.067
79.956,-15.167,-1004.984,0.135,-0.709,-0.070
81.000,-17.000,-1005.000,0.070,-0.840,-0.070
81.170,-16.177,-1004.999,0.063,-0.787,-0.071
80.118,-16.460,-1004.987,0.084,-0.753,-0.068
79.976,-17.476,-1004.791,0.022,-0.784,-0.072
79.971,-16.282,-1004.853,-0.008,-0.760,-0.068
79.999,-16.036,-1004.633,0.016,-0.774,-0.072
79.992,-15.953,-1003.690,0.084,-0.770,-0.069
80.002,-16.017,-1003.023,0.064,-0.767,-0.071
80.004,-16.017,-1004.801,0.001,-0.703,-0.071
79.954,-15.953,-1006.215,0.004,-0.747,-0.068
80.553,-16.066,-1004.291,-0.015,-0.795,-0.073
81.338,-15.914,-1004.101,0.050,-0.720,-0.066
80.421,-16.086,-1005.076,0.049,-0.699,-0.075
80.026,-15.905,-1004.858,-0.007,-0.698,-0.065
79.932,-16.106,-1005.044,-0.003,-0.704,-0.074
80.000,-17.000,-1005.000,-0.070,-0.770,-0.070
80.993,-17.060,-1004.969,-0.075,-0.840,-0.003
80.261,-16.882,-1005.017,-0.064,-0.791,-0.045
79.905,-17.245,-1004.792,-0.076,-0.758,-0.087
79.937,-16.134,-1004.769,-0.065,-0.778,-0.057
80.252,-14.639,-1005.034,-0.073,-0.764,-0.080
81.129,-15.243,-1006.186,-0.068,-0.773,-0.063
80.955,-16.052,-1005.920,-0.070,-0.769,-0.073
80.074,-16.934,-1005.025,-0.070,-0.769,-0.073
79.779,-17.134,-1004.992,-0.070,-0.771,-0.056
80.895,-16.799,-1004.752,-0.070,-0.768,-0.132
80.487,-17.277,-1005.256,-0.071,-0.771,-0.106
79.838,-16.473,-1006.074,-0.067,-0.769,-0.062
80.156,-15.996,-1005.682,-0.073,-0.770,-0.069
81.167,-15.960,-1004.944,-0.067,-0.770,-0.076
81.000,-16.000,-1005.000,-0.070,-0.770,-0.140
79.961,-16.134,-1005.001,-0.135,-0.768,-0.086
80.295,-15.057,-1004.990,-0.101,-0.777,-0.046
78.937,-15.602,-1004.774,-0.014,-0.728,-0.132
80.042,-16.021,-1004.897,0.002,-0.689,-0.111
80.816,-16.281,-1004.533,-0.000,-0.704,-0.060
80.032,-17.001,-1003.940,0.000,-0.704,-0.074
81.027,-15.919,-1005.136,-0.000,-0.776,-0.069
80.085,-15.950,-1006.030,-0.001,-0.777,-0.069
79.895,-16.108,-1005.146,0.002,-0.700,-0.072
80.035,-15.865,-1004.754,-0.006,-0.747,-0.067
80.025,-16.133,-1004.834,0.012,-0.778,-0.074
79.835,-15.868,-1004.798,-0.033,-0.767,-0.065
80.307,-16.117,-1004.985,-0.064,-0.770,-0.076
81.007,-15.886,-1004.997,0.009,-0.771,-0.063
81.000,-15.000,-1005.000,0.000,-0.770,0.000
81.166,-14.911,-1005.000,-0.004,-0.709,0.007
79.922,-15.754,-1004.936,0.003,-0.691,-0.054
80.933,-16.159,-1005.297,0.024,-0.708,-0.080
79.934,-15.825,-1006.139,0.122,-0.692,-0.062
79.363,-16.313,-1005.378,0.135,-0.706,-0.077
81.128,-17.124,-1004.977,0.147,-0.695,-0.065
79.939,-16.948,-1004.984,0.135,-0.702,-0.072
80.907,-16.061,-1004.972,0.072,-0.702,-0.072
80.415,-15.841,-1005.111,0.070,-0.689,-0.061
79.605,-16.779,-1004.510,0.065,-0.757,-0.088
80.322,-16.695,-1005.974,0.099,-0.746,-0.019
79.692,-15.598,-1006.790,0.187,-0.665,-0.008
80.318,-16.436,-1005.531,0.320,-0.619,0.022
81.064,-16.910,-1004.984,0.341,-0.643,0.067
81.000,-16.000,-1005.000,0.280,-0.770,-0.000
80.108,-16.816,-1004.964,0.291,-0.779,-0.002
79.921,-17.241,-1005.623,0.128,-0.755,-0.002
80.023,-16.313,-1006.186,0.034,-0.792,0.012
79.991,-15.845,-1005.087,0.099,-0.724,-0.041
79.940,-16.287,-1004.979,0.045,-0.705,-0.054
80.063,-17.127,-1004.695,0.094,-0.686,-0.000
79.961,-16.970,-1004.067,0.137,-0.630,-0.074
79.925,-16.974,-1005.914,0.073,-0.694,-0.009
81.001,-17.071,-1005.344,0.070,-0.710,0.023
80.219,-16.878,-1004.537,0.064,-0.686,-0.072
80.403,-17.187,-1005.040,0.104,-0.740,-0.025
81.120,-16.567,-1004.617,0.156,-0.782,-0.015
81.032,-15.912,-1005.139,0.122,-0.754,-0.085
80.871,-16.016,-1004.859,0.064,-0.693,-0.064
80.000,-16.000,-1004.000,0.070,-0.700,-0.070
80.963,-16.014,-1004.744,0.078,-0.763,-0.077
79.632,-15.920,-1006.004,0.012,-0.775,-0.051
79.034,-16.542,-1005.175,0.002,-0.765,-0.132
80.651,-17.254,-1004.738,-0.027,-0.774,-0.103
79.285,-16.643,-1004.767,-0.082,-0.766,-0.085
79.218,-15.893,-1005.167,-0.067,-0.773,-0.141
80.017,-16.047,-1006.011,-0.069,-0.769,-0.064
79.998,-16.935,-1005.094,-0.006,-0.768,-0.066
79.992,-17.168,-1004.767,0.009,-0.779,-0.077
80.471,-16.203,-1005.679,0.021,-0.719,-0.062
81.498,-16.309,-1005.428,0.142,-0.693,-0.078
79.982,-17.391,-1004.498,0.100,-0.702,-0.063
79.089,-16.560,-1005.234,0.085,-0.700,-0.075
80.037,-16.100,-1004.784,0.143,-0.699,-0.067
79.000,-17.000,-1004.000,0.140,-0.700,-0.070
79.710,-16.102,-1004.969,0.202,-0.705,-0.075
80.426,-16.625,-1004.224,0.215,-0.647,-0.019
79.375,-16.770,-1004.184,0.208,-0.620,0.016
81.058,-15.741,-1005.161,0.207,-0.637,-0.036
80.123,-17.943,-1004.400,0.219,-0.623,-0.078
79.210,-17.604,-1003.992,0.189,-0.640,-0.067
81.064,-17.068,-1005.129,0.063,-0.704,-0.071
80.106,-17.150,-1006.036,0.066,-0.703,-0.070
79.841,-15.011,-1005.056,0.078,-0.687,-0.069
80.127,-16.441,-1005.486,0.061,-0.760,-0.071
79.893,-16.643,-1005.548,0.079,-0.740,-0.070
80.000,-16.088,-1004.424,0.064,-0.685,-0.070
80.135,-17.235,-1005.364,0.067,-0.714,-0.071
81.140,-16.948,-1005.972,-0.018,-0.783,-0.069
81.000,-17.000,-1005.000,-0.070,-0.840,-0.070
80.059,-16.143,-1004.814,-0.062,-0.780,-0.071
80.032,-15.895,-1005.999,-0.130,-0.760,-0.066
79.448,-15.992,-1005.073,-0.135,-0.779,-0.081
78.990,-16.399,-1005.215,-0.172,-0.763,-0.033
80.721,-16.978,-1005.702,-0.216,-0.774,-0.007
80.753,-15.742,-1004.926,-0.216,-0.768,-0.085
80.004,-16.070,-1006.082,-0.284,-0.770,-0.066
80.043,-16.067,-1005.178,-0.281,-0.768,-0.065
79.758,-15.768,-1003.810,-0.369,-0.867,-0.137
81.047,-16.909,-1005.171,-0.584,-1.032,-0.101
79.841,-16.522,-1006.528,-0.664,-1.019,-0.043
79.096,-15.815,-1006.656,-0.743,-0.967,-0.128
80.195,-16.118,-1005.566,-0.750,-0.985,-0.217
79.976,-15.888,-1004.969,-0.609,-0.978,-0.125
80.000,-15.000,-1005.000,-0.560,-0.980,-0.140
79.073,-14.955,-1005.865,-0.566,-0.982,-0.153
79.616,-15.053,-1005.550,-0.506,-0.976,-0.109
80.257,-14.954,-1004.156,-0.483,-0.987,-0.222
79.533,-15.013,-1006.108,-0.479,-0.953,-0.130
78.692,-15.032,-1006.584,-0.369,-0.884,-0.086
79.415,-14.864,-1005.923,-0.257,-0.828,-0.136
81.008,-13.967,-1005.990,-0.128,-0.765,-0.069
79.169,-14.878,-1005.969,-0.004,-0.703,-0.136
78.667,-15.316,-1006.157,-0.002,-0.696,-0.094
79.909,-13.979,-1004.989,0.044,-0.705,-0.050
79.910,-14.585,-1004.939,0.082,-0.693,-0.086
80.081,-15.216,-1004.304,0.064,-0.709,-0.058
79.900,-16.523,-1004.137,0.072,-0.683,-0.077
80.110,-16.814,-1005.066,0.073,-0.625,-0.067
81.000,-15.000,-1005.000,0.140,-0.630,-0.070
80.274,-14.960,-1005.091,0.207,-0.631,-0.072
78.936,-14.926,-1004.053,0.211,-0.628,-0.066
79.677,-15.669,-1004.831,0.211,-0.631,-0.074
79.980,-15.690,-1006.267,0.209,-0.629,-0.066
80.112,-14.980,-1005.386,0.212,-0.629,-0.073
79.770,-16.268,-1004.896,0.208,-0.632,-0.069
79.011,-15.931,-1005.059,0.212,-0.627,-0.070
79.938,-15.941,-1005.983,0.214,-0.563,-0.070
80.065,-16.155,-1005.233,0.100,-0.602,-0.069
79.961,-15.768,-1004.707,0.042,-0.698,-0.071
79.954,-16.282,-1004.502,0.105,-0.687,-0.069
80.071,-15.663,-1003.430,0.002,-0.732,-0.071
79.870,-16.434,-1004.355,-0.075,-0.773,-0.068
80.152,-16.908,-1005.019,-0.076,-0.771,-0.075
81.000,-16.000,-1005.000,-0.140,-0.770,-0.140
80.163,-16.006,-1005.002,-0.194,-0.764,-0.150
79.268,-15.917,-1004.971,-0.322,-0.827,-0.078
78.643,-16.219,-1004.831,-0.356,-0.839,-0.073
79.755,-15.363,-1004.750,-0.375,-0.868,-0.059
79.551,-15.252,-1005.030,-0.422,-0.920,-0.096
79.258,-15.999,-1006.207,-0.325,-0.912,-0.141
81.042,-14.922,-1005.903,-0.278,-0.987,-0.143
79.211,-14.953,-1004.985,-0.217,-0.987,-0.209
77.874,-15.095,-1005.819,-0.191,-0.909,-0.155
78.661,-14.888,-1005.888,-0.277,-0.961,-0.166
79.571,-15.098,-1005.821,-0.242,-0.958,-0.244
80.064,-14.922,-1005.713,-0.205,-0.887,-0.165
80.055,-15.040,-1006.151,-0.201,-0.926,-0.144
79.827,-14.994,-1005.764,-0.130,-0.898,-0.135
78.000,-15.000,-1004.000,-0.140,-0.840,-0.140
78.724,-14.155,-1004.792,-0.207,-0.842,-0.205
79.359,-13.823,-1005.153,-0.170,-0.832,-0.212
78.525,-14.187,-1005.079,-0.060,-0.860,-0.210
79.785,-13.816,-1006.379,0.072,-0.775,-0.208
79.658,-14.138,-1004.976,0.162,-0.679,-0.212
78.937,-13.966,-1004.007,0.118,-0.714,-0.208
79.001,-15.151,-1005.068,-0.009,-0.774,-0.211
78.992,-16.055,-1005.039,-0.070,-0.775,-0.211
79.041,-15.058,-1004.906,-0.021,-0.707,-0.205
78.887,-15.124,-1004.908,0.086,-0.705,-0.222
79.188,-14.682,-1005.033,0.228,-0.663,-0.169
78.463,-15.689,-1006.371,0.294,-0.622,-0.134
78.244,-15.552,-1005.253,0.275,-0.630,-0.141
80.272,-13.928,-1004.056,0.280,-0.635,-0.141
80.000,-15.000,-1005.000,0.210,-0.700,-0.140
78.945,-15.082,-1004.048,0.082,-0.704,-0.137
79.792,-14.961,-1005.269,0.057,-0.696,-0.152
80.089,-14.561,-1006.347,0.111,-0.702,-0.088
79.647,-13.654,-1005.063,0.174,-0.700,-0.091
78.672,-14.411,-1004.872,0.226,-0.696,-0.155
79.284,-15.068,-1004.941,0.189,-0.710,-0.134
80.004,-14.980,-1005.018,0.062,-0.773,-0.142
79.991,-14.962,-1005.020,0.064,-0.771,-0.141
79.417,-15.814,-1004.918,0.136,-0.772,-0.136
77.856,-16.153,-1005.000,0.136,-0.729,-0.149
78.811,-15.562,-1004.179,0.151,-0.683,-0.105
78.470,-14.441,-1003.976,0.111,-0.713,-0.055
78.245,-14.100,-1005.254,0.064,-0.690,-0.082
78.930,-15.173,-1004.870,0.070,-0.706,-0.059
78.000,-16.000,-1005.000,0.070,-0.700,-0.000
79.761,-16.126,-1005.950,0.128,-0.635,-0.060
79.504,-15.062,-1005.996,0.196,-0.629,-0.080
79.057,-15.682,-1005.426,0.224,-0.625,-0.061
80.664,-15.354,-1004.296,0.173,-0.657,-0.078
79.245,-13.721,-1005.497,0.145,-0.716,-0.063
79.279,-15.423,-1005.714,0.233,-0.685,-0.076
79.960,-14.869,-1005.052,0.281,-0.628,-0.066
79.015,-14.850,-1006.013,0.280,-0.629,-0.002
79.790,-16.186,-1005.055,0.281,-0.632,-0.048
79.613,-14.983,-1005.566,0.277,-0.627,-0.097
78.458,-15.684,-1005.326,0.287,-0.633,-0.010
79.726,-15.881,-1005.008,0.257,-0.627,-0.030
79.708,-16.237,-1006.012,0.196,-0.632,-0.063
78.994,-15.745,-1004.845,0.220,-0.629,0.008
79.000,-15.000,-1005.000,0.280,-0.630,-0.000
78.816,-16.958,-1004.176,0.285,-0.632,0.001
80.666,-15.466,-1004.346,0.230,-0.627,-0.047
80.533,-15.811,-1005.884,0.193,-0.635,-0.084
79.892,-17.321,-1005.254,0.230,-0.623,-0.063
79.570,-15.111,-1004.739,0.178,-0.638,-0.060
77.753,-15.289,-1005.102,0.142,-0.622,0.011
79.178,-15.999,-1006.072,0.136,-0.635,-0.082
80.045,-15.982,-1006.073,0.071,-0.700,-0.145
79.820,-16.067,-1005.091,0.127,-0.642,-0.072
80.327,-15.878,-1004.806,0.110,-0.661,-0.081
79.162,-16.193,-1004.790,0.039,-0.730,-0.047
79.359,-15.540,-1004.833,0.113,-0.658,-0.117
80.086,-15.044,-1004.959,0.131,-0.639,-0.119
79.994,-16.181,-1005.014,0.058,-0.712,-0.075
80.000,-16.000,-1005.000,0.000,-0.770,-0.140
79.962,-14.959,-1004.937,-0.003,-0.776,-0.081
80.143,-15.860,-1005.692,0.007,-0.717,-0.058
79.294,-15.458,-1006.063,-0.039,-0.689,-0.108
79.209,-15.129,-1005.268,-0.089,-0.709,-0.168
80.333,-16.390,-1004.736,-0.042,-0.692,-0.087
79.694,-15.689,-1005.016,0.003,-0.706,0.001
79.029,-15.015,-1004.995,0.002,-0.697,-0.075
79.965,-15.905,-1004.998,0.065,-0.695,-0.072
79.290,-16.933,-1004.986,0.081,-0.769,-0.069
79.159,-16.483,-1004.845,0.020,-0.720,-0.063
81.178,-15.610,-1004.760,-0.013,-0.724,-0.112
80.013,-16.605,-1004.876,0.027,-0.775,-0.126
79.102,-16.823,-1004.887,0.080,-0.658,-0.056
80.027,-15.923,-1005.123,0.066,-0.640,-0.073
79.000,-16.000,-1006.000,0.070,-0.700,-0.070
78.916,-15.184,-1005.165,0.129,-0.641,-0.132
79.065,-14.754,-1004.823,0.196,-0.619,-0.102
79.326,-15.329,-1004.905,0.219,-0.642,-0.044
80.727,-14.521,-1005.048,0.199,-0.617,-0.092
80.800,-15.876,-1006.017,0.231,-0.644,-0.051
79.714,-16.823,-1004.452,0.290,-0.612,-0.084
79.004,-14.916,-1004.102,0.276,-0.561,-0.063
79.915,-15.868,-1005.045,0.213,-0.626,0.001
80.172,-16.251,-1004.009,0.204,-0.635,-0.059
79.697,-15.682,-1004.542,0.219,-0.628,-0.075
80.728,-16.355,-1004.791,0.178,-0.626,-0.069
80.701,-15.601,-1004.993,0.107,-0.652,-0.069
79.827,-16.489,-1004.591,0.063,-0.712,-0.072
80.066,-16.864,-1004.146,0.073,-0.696,-0.069
80.000,-16.000,-1006.000,0.070,-0.700,-0.070
79.127,-16.934,-1005.241,0.067,-0.700,-0.072
78.798,-16.346,-1004.676,0.075,-0.739,-0.066
79.712,-15.839,-1005.543,0.062,-0.829,-0.077
79.733,-15.805,-1005.918,0.081,-0.834,-0.061
78.670,-14.586,-1005.660,0.060,-0.852,-0.081
79.258,-15.416,-1006.269,0.206,-0.815,-0.055
80.021,-17.068,-1006.921,0.585,-0.613,0.002
80.019,-17.034,-1004.187,0.644,-0.489,-0.000
79.280,-16.916,-1004.350,0.397,-0.593,0.006
78.610,-17.165,-1006.112,0.251,-0.734,-0.044
79.852,-16.424,-1004.965,0.111,-0.813,-0.107
79.506,-15.898,-1004.970,-0.082,-0.849,-0.160
79.174,-16.004,-1004.792,-0.144,-0.835,-0.113
79.999,-16.064,-1005.138,-0.141,-0.842,-0.076
79.000,-17.000,-1005.000,-0.140,-0.840,-0.140
79.780,-17.086,-1003.879,-0.136,-0.837,-0.081
80.206,-16.859,-1005.614,-0.188,-0.846,-0.062
80.212,-17.208,-1005.380,-0.255,-0.831,-0.071
81.567,-16.496,-1004.863,-0.295,-0.854,-0.094
80.327,-15.844,-1006.271,-0.257,-0.813,-0.155
80.145,-16.179,-1005.636,-0.199,-0.768,-0.135
79.902,-17.021,-1005.041,-0.134,-0.768,-0.140
78.987,-16.108,-1005.972,-0.071,-0.704,-0.077
79.188,-15.766,-1005.294,-0.075,-0.694,-0.052
78.056,-16.348,-1004.489,-0.024,-0.705,-0.135
78.563,-15.509,-1005.524,0.011,-0.696,-0.106
78.961,-16.793,-1005.776,-0.007,-0.701,-0.058
79.249,-16.603,-1006.083,0.011,-0.701,-0.077
80.036,-16.127,-1005.872,0.084,-0.695,-0.066
80.000,-17.000,-1005.000,0.140,-0.630,-0.070
80.119,-16.022,-1004.985,0.136,-0.625,-0.136
79.046,-16.817,-1004.957,0.194,-0.638,-0.099
79.677,-16.442,-1004.897,0.212,-0.620,-0.043
79.591,-16.238,-1004.624,0.233,-0.639,-0.119
79.105,-17.064,-1005.215,0.296,-0.621,-0.123
80.065,-15.672,-1005.954,0.272,-0.636,-0.061
78.905,-16.138,-1004.906,0.282,-0.628,-0.072
78.944,-17.933,-1004.043,0.283,-0.627,-0.071
79.078,-17.435,-1003.855,0.225,-0.640,-0.067
79.412,-15.906,-1004.567,0.159,-0.608,-0.074
80.478,-16.738,-1004.854,0.131,-0.688,-0.065
79.273,-16.598,-1004.844,0.145,-0.669,-0.075
79.273,-16.118,-1004.889,0.138,-0.639,-0.066
79.975,-17.040,-1005.131,0.137,-0.705,-0.073
79.000,-16.000,-1006.000,0.070,-0.700,-0.070
79.708,-15.860,-1005.147,0.060,-0.761,-0.066
81.062,-16.791,-1004.856,0.095,-0.774,-0.079
80.358,-17.210,-1004.900,-0.028,-0.801,-0.053
79.609,-16.421,-1004.755,-0.057,-0.861,-0.114
78.644,-16.160,-1004.828,0.022,-0.826,-0.126
79.349,-17.154,-1005.018,-0.017,-0.848,-0.061
79.941,-16.973,-1004.974,-0.072,-0.837,-0.072
78.988,-16.989,-1004.940,-0.071,-0.837,-0.071
79.911,-16.990,-1005.942,-0.068,-0.851,-0.069
79.310,-17.112,-1005.135,-0.076,-0.786,-0.071
79.324,-16.407,-1005.152,-0.040,-0.767,-0.070
80.160,-16.169,-1005.812,0.034,-0.769,-0.069
80.132,-17.231,-1004.625,0.078,-0.772,-0.072
81.010,-16.921,-1005.147,0.063,-0.768,-0.068
79.000,-17.000,-1005.000,-0.000,-0.770,-0.070
78.663,-17.032,-1004.864,-0.007,-0.773,-0.073
80.306,-17.008,-1005.241,0.055,-0.759,-0.063
78.422,-16.523,-1004.413,0.079,-0.820,-0.082
78.726,-15.708,-1005.552,0.062,-0.821,-0.051
80.136,-16.208,-1005.668,0.079,-0.751,-0.105
78.727,-15.850,-1006.199,0.056,-0.781,-0.129
80.217,-16.076,-1005.856,-0.001,-0.765,-0.070
81.141,-16.974,-1004.026,0.062,-0.702,-0.137
79.025,-17.000,-1004.809,0.137,-0.699,-0.092
80.383,-17.030,-1004.783,0.137,-0.700,-0.052
80.737,-16.940,-1005.405,0.148,-0.701,-0.085
79.761,-17.065,-1005.535,0.115,-0.698,-0.059
79.911,-16.936,-1005.010,0.059,-0.702,-0.077
78.920,-17.042,-1006.085,0.075,-0.699,-0.066
80.000,-17.000,-1005.000,0.070,-0.700,-0.070
80.172,-16.928,-1004.827,0.005,-0.703,-0.073
79.703,-17.209,-1005.267,0.001,-0.691,-0.065
80.416,-16.206,-1004.399,-0.038,-0.744,-0.076
79.180,-16.360,-1005.583,-0.068,-0.779,-0.063
79.343,-17.160,-1005.474,0.048,-0.766,-0.076
80.020,-16.952,-1005.037,0.056,-0.772,-0.064
80.025,-17.004,-1006.070,-0.002,-0.770,-0.074
80.064,-16.990,-1006.060,0.000,-0.770,-0.136
79.033,-17.098,-1005.153,-0.003,-0.769,-0.149
79.686,-16.252,-1004.643,0.007,-0.775,-0.092
79.669,-16.308,-1005.394,-0.014,-0.737,-0.058
78.712,-17.313,-1005.697,0.032,-0.684,-0.079
79.116,-16.803,-1004.634,0.074,-0.710,-0.063
79.005,-17.110,-1005.232,0.071,-0.694,-0.074
80.000,-17.000,-1006.000,0.070,-0.700,-0.070
80.161,-16.013,-1005.015,0.008,-0.768,-0.061
79.645,-16.680,-1005.753,-0.007,-0.723,-0.134
80.991,-17.253,-1005.415,0.032,-0.685,-0.103
80.105,-16.462,-1004.509,0.120,-0.713,-0.057
78.718,-16.028,-1004.977,0.122,-0.687,-0.076
79.090,-17.396,-1004.993,0.064,-0.716,-0.068
78.981,-17.946,-1006.108,0.070,-0.770,-0.070
78.988,-17.002,-1006.114,0.067,-0.705,-0.068
79.019,-17.876,-1004.915,0.133,-0.691,-0.124
78.973,-16.926,-1005.663,0.099,-0.711,-0.158
78.981,-15.685,-1005.341,0.081,-0.688,-0.097
79.011,-18.221,-1004.675,0.174,-0.712,-0.062
78.945,-17.189,-1004.982,0.108,-0.689,-0.075
79.088,-16.179,-1005.084,0.072,-0.708,-0.064
80.000,-18.000,-1006.000,0.070,-0.700,-0.000
80.067,-17.108,-1005.201,0.062,-0.628,0.007
79.886,-17.662,-1004.740,0.129,-0.688,-0.053
80.170,-17.705,-1005.077,0.140,-0.669,-0.085
79.488,-16.612,-1004.528,0.147,-0.610,-0.033
78.875,-17.240,-1005.083,0.117,-0.654,-0.006
79.034,-16.866,-1004.780,0.069,-0.709,-0.088
78.995,-17.041,-1005.111,0.148,-0.696,-0.063
79.003,-17.037,-1006.042,0.209,-0.633,0.001
78.940,-16.900,-1005.017,0.208,-0.628,-0.057
79.615,-17.140,-1005.567,0.214,-0.629,-0.077
80.175,-16.831,-1005.419,0.204,-0.633,-0.066
79.896,-17.161,-1004.617,0.220,-0.625,-0.071
79.902,-16.861,-1005.025,0.192,-0.636,-0.072
78.890,-17.086,-1005.053,0.135,-0.625,-0.065
80.000,-17.000,-1006.000,0.140,-0.630,-0.000
80.302,-16.842,-1006.088,0.140,-0.696,0.009
78.760,-17.971,-1005.319,0.144,-0.697,-0.057
80.020,-17.385,-1003.972,0.103,-0.710,-0.076
79.231,-16.917,-1004.462,0.054,-0.681,-0.064
79.442,-16.978,-1006.329,0.081,-0.736,-0.087
79.798,-17.055,-1005.639,0.062,-0.757,-0.153
79.038,-16.963,-1005.011,0.073,-0.701,-0.135
80.007,-16.928,-1005.033,0.075,-0.768,-0.072
79.069,-17.991,-1004.828,0.003,-0.716,-0.069
79.737,-17.245,-1005.652,0.043,-0.696,-0.069
79.475,-17.419,-1005.419,0.083,-0.667,-0.072
79.241,-17.936,-1004.522,0.062,-0.636,-0.067
79.948,-16.674,-1005.283,0.075,-0.721,-0.073
78.943,-17.180,-1006.064,0.065,-0.691,-0.068
80.000,-18.000,-1006.000,0.000,-0.700,-0.070
80.078,-18.058,-1005.140,-0.065,-0.764,-0.073
79.998,-17.282,-1004.752,-0.071,-0.779,-0.061
79.415,-16.817,-1005.576,-0.073,-0.728,-0.087
79.150,-17.133,-1005.509,-0.047,-0.688,-0.026
80.300,-16.900,-1004.538,0.029,-0.707,-0.015
79.857,-17.057,-1005.246,0.081,-0.692,-0.079
80.037,-16.982,-1005.997,0.146,-0.623,-0.069
80.028,-16.983,-1005.089,0.208,-0.560,-0.070
79.942,-17.045,-1004.758,0.213,-0.615,-0.069
80.045,-16.931,-1005.727,0.206,-0.641,-0.078
79.943,-17.074,-1005.328,0.217,-0.620,-0.033
80.000,-16.917,-1004.652,0.189,-0.650,0.008
80.006,-17.072,-1005.038,0.117,-0.727,-0.001
79.985,-16.946,-1004.994,0.066,-0.767,-0.005
80.000,-17.000,-1005.000,0.070,-0.700,-0.070
80.041,-17.902,-1004.117,0.073,-0.696,-0.075
79.883,-18.070,-1004.412,0.063,-0.701,-0.064
80.227,-17.949,-1005.858,0.085,-0.731,-0.074
79.355,-18.018,-1005.182,0.029,-0.795,-0.070
79.192,-18.012,-1005.068,0.012,-0.739,-0.057
80.145,-17.903,-1006.011,0.081,-0.698,0.013
79.947,-16.922,-1004.906,0.068,-0.699,-0.004
79.048,-16.916,-1004.924,0.070,-0.698,-0.004
79.581,-17.974,-1005.247,0.020,-0.754,0.015
80.588,-17.370,-1003.823,-0.023,-0.789,-0.063
78.764,-16.823,-1004.765,0.047,-0.720,-0.037
80.124,-17.100,-1006.170,0.086,-0.720,0.011
80.560,-16.938,-1005.794,0.171,-0.774,-0.004
78.993,-17.029,-1006.091,0.208,-0.681,0.001
80.000,-17.000,-1006.000,0.210,-0.630,0.000
79.017,-16.970,-1005.078,0.275,-0.638,-0.001
80.509,-17.068,-1004.892,0.281,-0.569,0.001
80.228,-16.854,-1005.319,0.283,-0.592,-0.002
78.384,-17.454,-1006.137,0.272,-0.652,0.004
79.296,-18.140,-1005.348,0.292,-0.602,-0.016
78.948,-17.940,-1005.080,0.262,-0.555,-0.083
80.104,-18.016,-1006.060,0.212,-0.561,-0.065
80.059,-18.015,-1006.053,0.278,-0.560,-0.002
80.546,-17.959,-1005.160,0.230,-0.559,-0.000
81.608,-18.059,-1004.687,0.194,-0.561,0.004
79.540,-17.918,-1004.950,0.224,-0.558,-0.008
79.224,-18.083,-1004.642,0.198,-0.561,0.012
80.294,-17.915,-1005.163,0.220,-0.559,-0.022
81.102,-18.066,-1004.815,0.201,-0.561,-0.068
81.000,-18.000,-1004.000,0.140,-0.560,0.000
80.077,-17.047,-1005.688,0.139,-0.559,0.005
79.955,-17.596,-1006.429,0.138,-0.563,-0.005
80.019,-18.730,-1004.359,0.172,-0.555,0.004
79.923,-19.127,-1004.053,0.237,-0.568,-0.003
80.207,-18.723,-1004.863,0.165,-0.548,0.001
81.193,-17.853,-1003.836,0.049,-0.581,0.001
80.920,-18.046,-1006.275,-0.002,-0.707,-0.002
80.022,-18.072,-1006.313,-0.002,-0.706,-0.065
80.020,-16.999,-1003.400,0.004,-0.638,-0.082
79.865,-18.229,-1007.952,0.021,-0.595,-0.016
80.526,-19.078,-1006.653,0.168,-0.499,0.004
81.099,-17.265,-1003.122,0.194,-0.533,0.001
80.992,-18.722,-1005.591,0.123,-0.655,-0.011
80.926,-18.685,-1004.829,0.055,-0.620,-0.079
80.000,-17.000,-1006.000,0.000,-0.630,-0.070
80.748,-17.979,-1006.246,0.123,-0.642,-0.062
81.408,-17.174,-1005.542,0.152,-0.564,-0.090
79.973,-17.528,-1006.487,0.160,-0.572,-0.007
80.611,-18.052,-1004.382,0.264,-0.519,-0.037
80.714,-18.281,-1004.390,0.266,-0.501,-0.058
80.012,-18.986,-1006.054,0.190,-0.577,0.010
81.075,-17.929,-1004.943,0.140,-0.634,-0.002
81.047,-17.966,-1005.894,0.204,-0.636,-0.001
80.884,-18.044,-1005.490,0.267,-0.514,-0.001
81.189,-17.997,-1004.239,0.332,-0.471,0.004
80.383,-17.895,-1005.511,0.333,-0.530,-0.012
79.901,-18.381,-1003.827,0.235,-0.573,0.033
79.999,-19.088,-1004.499,0.212,-0.548,0.063
80.062,-19.010,-1004.858,0.204,-0.572,-0.008
81.000,-19.000,-1005.000,0.140,-0.630,-0.000
81.098,-18.065,-1006.136,0.128,-0.565,0.004
80.823,-18.612,-1004.941,0.246,-0.605,-0.008
81.262,-19.309,-1005.140,0.301,-0.643,0.039
80.377,-18.443,-1004.545,0.259,-0.626,0.089
79.985,-17.900,-1006.816,0.311,-0.616,0.042
79.948,-18.034,-1005.071,0.346,-0.550,-0.003
80.029,-18.008,-1005.363,0.275,-0.560,-0.000
80.043,-18.898,-1008.233,0.276,-0.495,-0.001
79.810,-19.265,-1003.292,0.293,-0.527,0.006
80.838,-18.498,-1005.049,0.222,-0.636,-0.015
80.870,-20.116,-1005.038,0.233,-0.593,0.047
81.249,-18.966,-1006.007,0.330,-0.517,0.066
80.547,-18.312,-1005.978,0.463,-0.388,0.089
80.184,-20.149,-1003.082,0.572,-0.436,0.142
82.000,-20.000,-1006.000,0.630,-0.420,0.140
81.196,-20.106,-1004.919,0.687,-0.341,0.204
80.836,-18.992,-1007.612,0.834,-0.386,0.208
81.078,-20.235,-1005.460,1.070,-0.199,0.250
80.979,-20.801,-1004.498,1.120,-0.158,0.289
80.890,-19.998,-1007.043,1.145,-0.217,0.280
81.216,-21.132,-1004.523,1.182,-0.218,0.271
81.983,-19.879,-1005.046,1.037,-0.284,0.206
81.020,-19.899,-1004.920,0.916,-0.342,0.208
82.442,-20.932,-1006.986,0.848,-0.424,0.215
83.566,-21.034,-1004.065,0.838,-0.358,0.169
81.710,-20.877,-1003.738,0.834,-0.394,0.114
80.766,-21.418,-1006.010,0.868,-0.393,0.185
81.273,-21.938,-1003.408,0.908,-0.367,0.193
82.014,-20.863,-1005.364,0.829,-0.506,0.139
81.000,-21.000,-1005.000,0.840,-0.490,0.140
80.830,-21.052,-1004.880,0.901,-0.433,0.070
81.901,-20.941,-1004.435,0.999,-0.313,0.160
81.911,-21.029,-1003.933,1.176,-0.268,0.300
82.377,-21.013,-1005.580,1.371,-0.264,0.417
83.220,-20.898,-1005.927,1.669,-0.180,0.529
82.777,-21.249,-1005.658,2.051,-0.125,0.674
81.975,-23.138,-1003.981,2.402,-0.069,0.849
82.001,-23.990,-1005.855,2.581,-0.134,0.905
81.925,-24.018,-1005.470,2.702,-0.150,0.976
82.662,-23.898,-1004.405,2.761,-0.126,0.935
83.071,-24.518,-1005.108,2.665,-0.177,0.907
83.203,-25.096,-1004.816,2.708,-0.226,0.885
84.236,-25.118,-1006.412,2.822,-0.189,0.843
83.904,-26.122,-1005.702,2.787,-0.137,0.917
84.000,-26.000,-1004.000,2.660,-0.140,0.840
84.078,-26.732,-1003.887,2.477,-0.137,0.714
83.856,-28.002,-1004.778,2.308,-0.149,0.640
84.176,-27.811,-1004.917,2.034,-0.121,0.634
83.760,-28.509,-1004.496,1.767,-0.186,0.584
84.224,-29.111,-1003.422,1.615,-0.201,0.435
83.735,-28.877,-1004.420,1.326,-0.229,0.324
82.991,-27.925,-1004.870,1.111,-0.277,0.204
83.005,-27.918,-1002.973,0.992,-0.210,0.206
83.591,-28.971,-1005.468,0.896,-0.272,0.219
85.101,-28.385,-1004.984,1.045,-0.236,0.196
84.177,-27.758,-1003.389,1.203,-0.210,0.247
84.475,-28.393,-1006.000,1.318,-0.178,0.310
84.778,-29.150,-1005.402,1.424,-0.160,0.358
84.045,-28.924,-1005.196,1.480,-0.291,0.350
85.000,-29.000,-1006.000,1.540,-0.210,0.420
84.088,-29.916,-1003.388,1.485,-0.197,0.489
84.714,-30.055,-1003.047,1.377,-0.268,0.489
84.505,-29.928,-1005.844,1.192,-0.320,0.469
84.454,-30.319,-1004.263,1.113,-0.360,0.344
86.387,-31.326,-1003.178,1.236,-0.361,0.266
84.505,-30.681,-1006.527,1.261,-0.428,0.291
85.150,-30.037,-1004.714,1.339,-0.341,0.354
85.150,-30.965,-1002.940,1.341,-0.341,0.355
84.502,-30.948,-1003.965,1.156,-0.424,0.287
86.393,-31.675,-1003.695,1.028,-0.398,0.279
84.453,-32.078,-1003.978,0.895,-0.498,0.277
84.479,-32.052,-1003.943,0.821,-0.580,0.286
84.853,-31.751,-1007.163,0.870,-0.536,0.272
85.241,-30.996,-1007.572,1.095,-0.394,0.289
86.000,-32.000,-1004.000,1.330,-0.280,0.350
84.052,-32.822,-1004.005,1.341,-0.334,0.352
85.433,-34.591,-1002.554,1.205,-0.446,0.313
86.177,-34.326,-1001.933,0.864,-0.615,0.185
86.048,-31.888,-1003.750,0.580,-0.766,0.129
85.579,-32.312,-1005.845,0.600,-0.737,0.141
85.152,-31.746,-1008.041,0.836,-0.595,0.147
85.958,-32.124,-1004.681,1.059,-0.485,0.215
84.088,-33.052,-1003.827,1.054,-0.486,0.275
85.314,-32.019,-1005.266,1.041,-0.546,0.342
87.162,-32.689,-1003.646,1.063,-0.607,0.349
86.419,-33.042,-1004.801,1.013,-0.648,0.381
85.532,-33.063,-1003.833,0.952,-0.595,0.445
85.055,-32.861,-1003.309,0.891,-0.567,0.525
86.138,-33.170,-1005.029,0.831,-0.639,0.639
86.000,-34.000,-1003.000,0.770,-0.630,0.630
85.992,-33.024,-1004.405,0.653,-0.679,0.744
85.360,-34.329,-1006.519,0.550,-0.780,0.805
84.745,-35.449,-1004.085,0.645,-0.687,0.697
85.117,-34.594,-1004.381,0.721,-0.588,0.725
85.087,-35.487,-1004.578,0.682,-0.548,0.652
86.236,-35.994,-1003.912,0.601,-0.574,0.540
85.934,-36.021,-1003.994,0.403,-0.633,0.405
85.938,-36.044,-1003.963,0.221,-0.691,0.219
86.182,-35.164,-1004.809,0.090,-0.823,0.153
85.649,-34.900,-1004.980,0.056,-0.813,0.085
86.799,-35.029,-1004.321,0.084,-0.713,0.069
86.617,-35.187,-1003.553,0.044,-0.716,0.064
85.904,-36.327,-1004.189,-0.025,-0.797,0.079
86.011,-35.765,-1003.850,-0.168,-0.840,0.059
86.000,-35.000,-1004.000,-0.350,-0.840,0.000
86.016,-36.024,-1005.870,-0.422,-0.902,0.006
85.955,-34.547,-1005.932,-0.374,-0.919,-0.063
86.055,-34.118,-1006.152,-0.301,-0.875,-0.028
85.907,-35.644,-1004.427,-0.273,-0.794,-0.017
85.946,-34.112,-1002.581,-0.283,-0.783,-0.087
84.550,-33.026,-1004.449,-0.279,-0.852,-0.065
84.104,-34.070,-1004.956,-0.279,-0.836,-0.069
85.948,-34.049,-1004.063,-0.216,-0.775,-0.006
85.213,-33.828,-1003.805,-0.193,-0.710,0.013
85.473,-34.814,-1004.695,-0.270,-0.692,-0.049
85.904,-34.635,-1004.299,-0.292,-0.728,-0.108
84.459,-33.669,-1003.920,-0.439,-0.811,-0.152
85.380,-34.357,-1005.289,-0.588,-0.836,-0.132
84.730,-34.974,-1004.808,-0.640,-0.852,-0.147
84.000,-34.000,-1004.000,-0.700,-0.980,-0.210
85.010,-33.881,-1005.584,-0.645,-0.988,-0.275
84.186,-34.267,-1007.314,-0.536,-0.969,-0.283
84.405,-33.132,-1004.885,-0.380,-0.992,-0.280
85.318,-33.467,-1003.530,-0.391,-0.966,-0.274
84.556,-33.882,-1003.803,-0.537,-1.002,-0.301
84.032,-32.815,-1004.285,-0.555,-1.060,-0.352
85.090,-33.039,-1006.041,-0.480,-1.044,-0.271
85.094,-33.027,-1004.198,-0.294,-0.919,-0.210
83.990,-32.949,-1003.600,-0.205,-0.892,-0.213
84.675,-33.005,-1004.387,-0.253,-0.969,-0.205
85.063,-33.355,-1002.756,-0.342,-0.999,-0.217
85.006,-34.341,-1003.406,-0.499,-1.114,-0.201
84.908,-33.650,-1003.848,-0.691,-1.209,-0.226
85.141,-32.933,-1004.205,-0.858,-1.273,-0.286
86.000,-32.000,-1005.000,-0.910,-1.330,-0.280
84.326,-30.985,-1003.095,-1.019,-1.322,-0.272
83.575,-31.711,-1004.845,-1.189,-1.434,-0.341
84.944,-32.233,-1007.124,-1.058,-1.468,-0.317
84.494,-31.419,-1005.988,-0.752,-1.295,-0.264
83.922,-31.275,-1003.622,-0.581,-1.142,-0.278
83.917,-33.458,-1000.679,-0.587,-1.143,-0.188
82.922,-32.835,-1004.439,-0.862,-1.345,-0.219
82.920,-31.922,-1006.224,-0.922,-1.344,-0.283
83.932,-32.445,-1003.706,-0.817,-1.188,-0.216
83.884,-30.004,-1005.818,-0.966,-1.285,-0.215
84.556,-31.755,-1004.309,-0.925,-1.344,-0.193
84.872,-32.422,-1004.743,-0.964,-1.329,-0.250
83.578,-29.354,-1005.465,-1.054,-1.316,-0.265
82.972,-30.214,-1002.876,-1.066,-1.257,-0.211
83.000,-30.000,-1005.000,-1.260,-1.330,-0.280
83.817,-29.929,-1005.946,-1.273,-1.345,-0.283
84.352,-29.438,-1006.848,-1.174,-1.221,-0.282
82.599,-29.055,-1005.766,-0.941,-1.145,-0.241
82.179,-30.741,-1004.765,-0.812,-1.087,-0.202
83.109,-29.160,-1006.088,-0.816,-1.029,-0.198
81.619,-29.366,-1004.504,-0.569,-0.962,-0.129
82.148,-29.921,-1004.016,-0.494,-0.910,-0.140
83.068,-28.962,-1003.139,-0.556,-0.973,-0.076
81.977,-30.020,-1002.509,-0.657,-1.043,-0.104
82.743,-28.663,-1005.588,-0.826,-1.060,-0.222
82.943,-28.058,-1007.244,-0.786,-0.992,-0.157
83.174,-29.729,-1003.989,-0.629,-0.854,-0.151
82.639,-29.840,-1003.498,-0.548,-0.850,-0.116
82.063,-28.824,-1006.228,-0.565,-0.829,-0.073
83.000,-28.000,-1006.000,-0.560,-0.770,-0.140
83.035,-27.971,-1007.016,-0.500,-0.769,-0.143
82.432,-28.552,-1004.216,-0.437,-0.811,-0.138
81.386,-29.992,-1002.942,-0.381,-0.873,-0.139
83.363,-29.106,-1005.785,-0.311,-0.779,-0.145
83.402,-27.904,-1002.467,-0.273,-0.802,-0.123
81.989,-29.313,-1005.091,-0.285,-0.832,-0.058
83.020,-28.889,-1005.770,-0.360,-0.849,-0.075
82.048,-27.985,-1004.765,-0.486,-0.980,-0.139
82.766,-28.784,-1006.782,-0.440,-0.863,-0.092
82.511,-29.227,-1001.904,-0.435,-0.906,-0.043
82.079,-28.364,-1004.871,-0.563,-1.027,-0.130
83.453,-27.982,-1005.931,-0.524,-0.929,-0.109
82.709,-27.800,-1004.364,-0.485,-0.914,-0.077
83.153,-26.966,-1008.314,-0.394,-0.908,-0.148
83.000,-28.000,-1006.000,-0.210,-0.910,-0.140
81.216,-28.139,-1005.787,-0.146,-0.852,-0.138
80.677,-27.766,-1005.507,-0.088,-0.825,-0.141
82.291,-28.312,-1004.966,-0.059,-0.856,-0.144
82.925,-27.577,-1005.968,-0.080,-0.823,-0.113
81.537,-28.634,-1004.269,-0.052,-0.857,-0.056
82.357,-28.669,-1005.276,0.013,-0.821,-0.076
82.960,-26.955,-1004.917,-0.007,-0.771,-0.068
82.044,-27.902,-1004.930,-0.133,-0.835,-0.068
81.962,-28.156,-1005.157,-0.150,-0.851,-0.075
81.986,-27.827,-1004.614,-0.125,-0.790,-0.060
82.060,-28.157,-1005.013,-0.180,-0.760,-0.106
81.632,-27.846,-1004.632,-0.222,-0.777,-0.155
80.966,-28.132,-1005.108,-0.195,-0.765,-0.121
82.221,-27.876,-1004.933,-0.129,-0.773,-0.065
82.000,-27.000,-1005.000,-0.070,-0.770,-0.070
80.928,-26.928,-1005.087,-0.066,-0.767,-0.072
81.867,-27.704,-1004.219,-0.078,-0.778,-0.067
81.891,-28.277,-1003.660,-0.055,-0.755,-0.073
82.248,-27.391,-1003.950,-0.108,-0.809,-0.067
81.443,-27.136,-1003.657,-0.142,-0.841,-0.072
81.277,-28.219,-1004.209,-0.148,-0.848,-0.068
83.065,-27.908,-1005.021,-0.214,-0.914,-0.071
82.134,-26.989,-1004.996,-0.214,-0.914,-0.071
81.030,-27.856,-1005.028,-0.150,-0.852,-0.068
81.426,-27.471,-1004.748,-0.137,-0.829,-0.073
82.939,-27.060,-1004.886,-0.117,-0.855,-0.067
82.199,-28.599,-1004.912,-0.043,-0.809,-0.073
80.982,-27.406,-1006.412,-0.093,-0.765,-0.067
82.077,-27.179,-1005.665,-0.049,-0.771,-0.072
81.000,-28.000,-1004.000,0.070,-0.770,-0.070
81.694,-27.073,-1003.996,0.069,-0.771,-0.067
82.455,-27.022,-1004.515,0.080,-0.768,-0.079
81.008,-26.881,-1005.317,0.024,-0.769,-0.027
81.203,-27.178,-1004.230,-0.022,-0.790,0.013
80.720,-26.779,-1005.379,-0.109,-0.861,-0.021
81.292,-27.195,-1004.619,-0.135,-0.831,-0.079
81.992,-26.904,-1006.277,-0.144,-0.923,-0.067
81.958,-26.843,-1005.514,-0.145,-0.987,-0.067
82.243,-28.978,-1000.296,-0.157,-0.941,-0.079
80.505,-27.664,-1006.956,-0.442,-1.169,-0.050
80.155,-26.487,-1007.684,-0.409,-1.056,-0.125
81.650,-25.495,-1005.711,-0.207,-0.871,-0.114
81.867,-26.817,-1004.975,-0.102,-0.910,-0.067
80.851,-27.743,-1002.141,0.009,-0.836,-0.063
81.000,-25.000,-1007.000,0.070,-0.910,-0.000
82.005,-26.648,-1006.356,0.206,-0.800,-0.058
81.262,-27.268,-1005.932,0.147,-0.732,-0.082
80.873,-26.916,-1004.014,0.201,-0.839,-0.060
81.025,-26.582,-1003.815,0.102,-0.847,-0.078
80.988,-26.123,-1007.487,-0.105,-0.948,-0.065
80.978,-27.038,-1004.143,0.031,-0.873,-0.072
81.015,-25.941,-1005.236,-0.006,-0.769,-0.069
81.024,-26.878,-1005.242,0.058,-0.773,-0.070
80.873,-27.224,-1002.923,0.099,-0.705,-0.070
81.714,-26.730,-1003.609,-0.006,-0.740,-0.073
82.091,-27.295,-1004.200,0.023,-0.787,-0.061
81.740,-26.489,-1005.089,-0.041,-0.755,-0.099
80.663,-26.034,-1004.936,-0.067,-0.790,-0.138
81.296,-27.252,-1006.234,-0.077,-0.844,-0.058
83.000,-28.000,-1006.000,-0.140,-0.840,-0.070
82.155,-27.063,-1004.935,-0.200,-0.894,-0.136
81.877,-27.105,-1005.780,-0.261,-0.978,-0.141
82.091,-26.249,-1005.933,-0.328,-0.941,-0.139
81.657,-26.417,-1005.407,-0.339,-0.897,-0.144
80.621,-26.855,-1004.617,-0.241,-0.918,-0.121
81.378,-25.953,-1005.096,-0.212,-0.905,-0.066
81.908,-27.083,-1004.967,-0.208,-0.912,-0.148
80.062,-27.024,-1004.970,-0.207,-0.914,-0.149
80.719,-27.713,-1005.064,-0.265,-0.850,-0.064
81.142,-27.773,-1004.730,-0.329,-0.834,-0.130
80.965,-25.978,-1004.889,-0.362,-0.843,-0.107
80.700,-26.425,-1004.772,-0.338,-0.838,-0.061
79.812,-27.227,-1004.864,-0.361,-0.842,-0.072
80.103,-28.078,-1003.889,-0.339,-0.839,-0.070
81.000,-27.000,-1005.000,-0.280,-0.840,-0.070
81.171,-25.889,-1006.112,-0.284,-0.845,-0.068
79.977,-26.964,-1005.071,-0.227,-0.786,-0.076
80.761,-26.337,-1004.912,-0.204,-0.791,-0.060
80.489,-26.245,-1004.619,-0.208,-0.875,-0.084
80.227,-27.285,-1005.024,-0.228,-0.796,-0.052
80.929,-26.770,-1004.832,-0.285,-0.785,-0.092
80.015,-25.967,-1005.063,-0.200,-0.839,-0.136
81.887,-25.979,-1005.072,-0.138,-0.774,-0.070
80.734,-26.091,-1004.752,-0.200,-0.768,-0.132
79.201,-25.350,-1005.231,-0.210,-0.763,-0.095
81.197,-24.752,-1004.260,-0.239,-0.811,-0.089
80.254,-25.425,-1005.424,-0.299,-0.827,-0.161
80.307,-26.108,-1004.390,-0.266,-0.754,-0.131
81.001,-25.964,-1005.445,-0.291,-0.775,-0.142
81.000,-26.000,-1006.000,-0.350,-0.770,-0.140
81.128,-26.036,-1004.666,-0.350,-0.767,-0.199
80.066,-25.892,-1006.119,-0.381,-0.803,-0.222
80.586,-26.555,-1001.320,-0.602,-1.003,-0.198
80.810,-27.286,-1005.703,-0.915,-1.161,-0.221
79.597,-26.425,-1007.901,-0.832,-0.956,-0.200
80.389,-24.723,-1003.615,-0.691,-0.938,-0.222
82.083,-25.079,-1004.987,-0.697,-1.052,-0.284
82.064,-25.101,-1002.955,-0.632,-1.048,-0.284
81.169,-23.947,-1007.802,-0.639,-1.067,-0.219
80.394,-24.821,-1007.938,-0.538,-0.942,-0.210
79.289,-24.500,-1004.156,-0.452,-0.935,-0.180
79.150,-24.118,-1005.054,-0.363,-0.977,-0.123
80.420,-25.279,-1003.636,-0.274,-0.888,-0.150
80.966,-24.847,-1005.301,-0.364,-0.920,-0.135
80.000,-24.000,-1005.000,-0.350,-0.910,-0.140
79.837,-23.899,-1005.668,-0.287,-0.844,-0.148
80.952,-24.857,-1006.451,-0.232,-0.840,-0.083
80.399,-24.501,-1004.894,-0.164,-0.838,-0.067
79.912,-24.056,-1004.821,-0.125,-0.843,-0.067
79.767,-25.470,-1005.046,-0.167,-0.836,-0.087
78.933,-24.616,-1006.038,-0.212,-0.845,-0.151
80.116,-24.052,-1004.907,-0.213,-0.836,-0.137
80.114,-24.971,-1004.948,-0.277,-0.772,-0.138
78.948,-24.980,-1005.032,-0.281,-0.817,-0.147
79.720,-25.123,-1005.390,-0.290,-0.866,-0.127
80.034,-24.446,-1005.689,-0.213,-0.787,-0.161
80.003,-23.876,-1004.278,-0.113,-0.775,-0.098
79.956,-24.040,-1005.485,-0.154,-0.762,-0.085
80.036,-23.992,-1005.898,-0.134,-0.777,-0.140
80.000,-24.000,-1005.000,-0.140,-0.770,-0.070
79.924,-23.992,-1004.951,-0.144,-0.698,-0.064
80.227,-24.026,-1005.074,-0.133,-0.761,-0.076
79.141,-23.940,-1004.617,-0.148,-0.730,-0.065
79.474,-24.086,-1005.373,-0.131,-0.714,-0.071
79.806,-23.861,-1005.663,-0.148,-0.789,-0.083
78.977,-24.212,-1004.838,-0.134,-0.762,-0.155
80.059,-25.001,-1005.022,-0.144,-0.772,-0.134
79.121,-24.081,-1004.992,-0.205,-0.772,-0.072
79.388,-23.853,-1005.727,-0.267,-0.767,-0.066
81.366,-24.212,-1006.098,-0.292,-0.773,-0.110
79.569,-23.412,-1005.201,-0.263,-0.769,-0.166
79.326,-22.836,-1004.620,-0.316,-0.767,-0.097
79.931,-23.223,-1005.300,-0.343,-0.782,-0.084
78.869,-24.096,-1005.916,-0.270,-0.848,-0.141
79.000,-24.000,-1004.000,-0.280,-0.840,-0.070
79.879,-23.928,-1004.595,-0.347,-0.836,-0.058
80.193,-24.189,-1006.232,-0.308,-0.846,-0.136
79.305,-23.257,-1004.916,-0.229,-0.833,-0.103
78.878,-23.269,-1004.981,-0.184,-0.847,-0.055
79.187,-24.290,-1004.595,-0.120,-0.833,-0.081
80.235,-23.754,-1005.186,-0.159,-0.845,-0.062
79.892,-22.978,-1004.913,-0.210,-0.838,-0.075
78.967,-22.995,-1004.878,-0.209,-0.838,-0.139
79.930,-22.996,-1006.115,-0.219,-0.849,-0.087
79.364,-23.017,-1004.921,-0.157,-0.789,-0.057
78.853,-22.952,-1005.024,-0.138,-0.760,-0.080
79.007,-23.062,-1004.424,-0.135,-0.791,-0.062
79.039,-22.907,-1005.517,-0.150,-0.857,-0.076
78.942,-23.121,-1005.823,-0.125,-0.827,-0.067
79.000,-24.000,-1005.000,-0.000,-0.770,-0.070
79.980,-23.198,-1005.135,0.004,-0.776,-0.073
79.286,-22.712,-1004.607,-0.000,-0.710,-0.064
78.866,-23.772,-1005.484,-0.034,-0.734,-0.078
79.008,-23.978,-1003.597,-0.089,-0.785,-0.060
79.032,-24.084,-1004.683,-0.056,-0.762,-0.080
78.914,-23.837,-1004.481,-0.085,-0.773,-0.062
79.070,-22.955,-1004.163,-0.141,-0.769,-0.074
79.997,-22.975,-1005.139,-0.079,-0.771,-0.076
79.203,-23.059,-1004.842,0.003,-0.719,0.000
78.891,-22.876,-1009.315,-0.052,-0.674,-0.049
78.990,-23.479,-1001.564,-0.065,-0.778,-0.073
79.060,-24.253,-1001.440,-0.114,-0.861,-0.075
78.860,-23.677,-1008.778,-0.228,-0.821,-0.060
79.171,-23.011,-1004.394,-0.112,-0.761,-0.082
80.000,-24.000,-1005.000,-0.000,-0.700,-0.140
79.037,-24.150,-1003.276,-0.057,-0.750,-0.073
79.775,-23.135,-1004.816,-0.128,-0.848,-0.123
79.496,-22.995,-1005.956,-0.147,-0.782,-0.109
79.143,-22.936,-1004.617,-0.134,-0.803,-0.074
80.137,-23.107,-1005.863,-0.147,-0.829,-0.171
78.601,-22.808,-1003.650,-0.129,-0.766,-0.117
79.172,-21.988,-1006.269,-0.066,-0.847,-0.070
80.989,-22.902,-1006.214,-0.067,-0.847,-0.071
79.556,-23.240,-1004.778,-0.079,-0.774,-0.067
77.883,-22.131,-1005.182,-0.021,-0.772,-0.075
78.630,-22.088,-1004.434,0.013,-0.765,-0.065
78.972,-21.754,-1005.111,-0.027,-0.777,-0.074
79.123,-22.534,-1004.785,-0.073,-0.756,-0.067
78.824,-24.006,-1005.087,0.020,-0.692,-0.072
78.000,-22.000,-1005.000,0.070,-0.700,-0.070
79.793,-22.542,-1004.912,0.001,-0.768,-0.069
79.486,-24.416,-1005.676,0.052,-0.724,-0.073
78.712,-22.374,-1006.220,0.072,-0.684,-0.067
78.825,-22.474,-1004.644,0.095,-0.712,-0.074
77.796,-22.959,-1004.182,0.153,-0.690,-0.066
79.416,-23.218,-1006.196,0.137,-0.707,-0.073
78.858,-23.985,-1004.871,0.139,-0.697,-0.068
78.813,-23.052,-1004.912,0.076,-0.696,-0.066
81.032,-22.984,-1005.185,0.059,-0.762,-0.133
79.582,-22.874,-1004.578,0.087,-0.770,-0.104
78.843,-23.621,-1005.073,0.027,-0.777,-0.048
78.953,-23.772,-1004.519,-0.009,-0.744,-0.089
79.125,-22.820,-1005.361,0.013,-0.691,-0.054
78.833,-23.044,-1005.951,0.078,-0.703,-0.084
78.000,-23.000,-1005.000,0.070,-0.700,-0.140
78.950,-23.022,-1004.906,0.061,-0.699,-0.077
78.265,-22.861,-1005.184,0.130,-0.702,-0.067
78.353,-23.719,-1004.077,0.139,-0.699,-0.069
79.287,-23.674,-1004.026,0.148,-0.700,-0.076
78.829,-22.832,-1005.341,0.118,-0.701,-0.060
79.047,-22.999,-1005.922,0.063,-0.698,-0.086
79.022,-23.070,-1004.925,0.071,-0.703,-0.139
79.945,-24.905,-1004.941,0.070,-0.766,-0.074
79.366,-23.778,-1005.166,0.074,-0.777,-0.069
78.619,-21.531,-1004.486,0.026,-0.761,-0.028
79.356,-23.459,-1005.644,-0.014,-0.779,-0.007
78.636,-23.619,-1005.388,0.010,-0.761,-0.125
79.288,-23.115,-1004.965,-0.007,-0.778,-0.122
78.816,-24.045,-1004.938,0.004,-0.764,-0.066
79.000,-23.000,-1005.000,-0.000,-0.770,-0.070
80.117,-22.867,-1005.998,-0.008,-0.839,-0.071
78.960,-23.214,-1005.216,0.058,-0.792,-0.070
79.834,-22.720,-1004.789,0.069,-0.756,-0.070
79.189,-23.316,-1004.676,0.095,-0.783,-0.069
77.662,-22.649,-1005.078,0.157,-0.748,-0.071
78.192,-23.375,-1004.614,0.125,-0.692,-0.069
79.061,-23.930,-1004.130,0.068,-0.702,-0.070
79.065,-22.976,-1006.903,0.069,-0.702,-0.070
78.721,-23.948,-1005.548,0.073,-0.694,-0.068
80.093,-23.262,-1004.931,0.065,-0.710,-0.074
78.787,-23.422,-1006.506,0.076,-0.686,-0.063
78.158,-23.919,-1005.009,0.060,-0.719,-0.081
79.127,-22.687,-1005.141,0.088,-0.671,-0.050
79.058,-23.181,-1004.884,0.145,-0.637,-0.001
80.000,-24.000,-1005.000,0.140,-0.700,-0.070
80.010,-23.201,-1005.946,0.141,-0.637,-0.076
80.111,-22.651,-1006.005,0.098,-0.672,-0.060
79.295,-23.964,-1005.437,0.016,-0.718,-0.082
79.050,-23.380,-1004.031,-0.002,-0.687,-0.057
78.582,-23.288,-1004.101,-0.001,-0.709,-0.085
78.180,-23.949,-1005.095,0.002,-0.695,-0.052
80.120,-22.949,-1004.980,-0.003,-0.701,-0.001
80.081,-22.994,-1004.984,-0.065,-0.701,-0.065
79.150,-22.899,-1005.041,-0.079,-0.697,-0.077
78.767,-23.808,-1004.690,-0.054,-0.705,-0.063
79.682,-23.502,-1005.376,-0.115,-0.691,-0.076
79.705,-23.175,-1005.691,-0.143,-0.724,-0.065
78.848,-24.071,-1004.669,-0.142,-0.782,-0.074
79.070,-22.795,-1005.157,-0.137,-0.764,-0.068
80.000,-23.000,-1005.000,-0.140,-0.770,-0.070
80.263,-23.939,-1003.907,-0.207,-0.835,-0.073
78.179,-24.104,-1005.487,-0.163,-0.840,-0.059
78.701,-23.368,-1006.067,-0.129,-0.847,-0.119
78.464,-23.162,-1005.423,-0.126,-0.809,-0.124
78.433,-24.375,-1004.299,-0.044,-0.760,-0.046
80.143,-23.700,-1004.213,-0.087,-0.774,-0.091
78.899,-22.997,-1006.093,-0.060,-0.768,-0.138
78.950,-23.019,-1005.171,0.066,-0.707,-0.074
79.028,-22.884,-1003.881,0.069,-0.631,-0.064
79.546,-23.743,-1004.550,0.113,-0.674,-0.076
80.200,-23.724,-1005.253,0.153,-0.711,-0.064
79.911,-22.572,-1006.123,0.132,-0.694,-0.075
79.875,-23.452,-1005.645,0.144,-0.703,-0.066
78.875,-23.907,-1004.925,0.139,-0.699,-0.072
79.000,-23.000,-1004.000,0.140,-0.700,-0.070
79.057,-23.008,-1003.755,0.083,-0.700,-0.068
78.887,-22.879,-1005.700,0.048,-0.701,-0.075
79.513,-23.672,-1005.378,0.131,-0.697,-0.063
80.333,-23.796,-1004.511,0.110,-0.705,-0.079
79.454,-22.485,-1005.192,0.063,-0.693,-0.060
79.179,-22.038,-1006.028,0.070,-0.707,-0.080
79.983,-23.113,-1004.857,0.073,-0.695,-0.064
79.025,-23.998,-1003.953,0.136,-0.630,0.001
79.802,-23.919,-1004.914,0.143,-0.689,-0.063
79.513,-24.234,-1004.680,0.174,-0.666,-0.027
78.750,-23.241,-1005.492,0.240,-0.608,-0.015
78.842,-23.369,-1005.475,0.165,-0.645,-0.097
77.828,-23.937,-1005.030,0.154,-0.620,-0.053
79.322,-22.866,-1006.125,0.214,-0.635,-0.079
80.000,-23.000,-1006.000,0.210,-0.630,-0.070
79.882,-23.855,-1005.999,0.215,-0.626,0.001
80.299,-24.316,-1005.332,0.117,-0.635,-0.053
79.065,-22.631,-1004.561,0.004,-0.649,-0.077
79.535,-22.169,-1005.011,0.007,-0.762,-0.067
79.770,-23.276,-1004.635,-0.008,-0.741,-0.070
78.987,-22.884,-1005.210,0.006,-0.706,-0.071
80.065,-23.028,-1006.012,-0.002,-0.773,-0.069
79.148,-23.020,-1005.123,-0.003,-0.771,-0.067
78.599,-22.940,-1003.962,0.013,-0.770,-0.131
80.198,-23.499,-1004.532,-0.058,-0.765,-0.108
78.726,-24.868,-1004.824,-0.062,-0.802,-0.040
78.164,-24.324,-1005.127,-0.101,-0.857,-0.115
79.175,-22.837,-1006.019,-0.135,-0.821,-0.127
78.962,-24.245,-1004.783,-0.058,-0.764,-0.064
79.000,-24.000,-1005.000,0.000,-0.770,-0.070
78.982,-22.985,-1006.047,0.063,-0.777,-0.072
79.082,-23.134,-1005.131,0.075,-0.713,-0.068
78.769,-22.721,-1005.278,0.067,-0.697,-0.073
79.613,-23.664,-1006.040,0.071,-0.695,-0.065
79.729,-23.727,-1005.700,0.070,-0.719,-0.086
79.016,-23.003,-1005.987,0.068,-0.778,-0.153
80.051,-24.067,-1004.884,0.072,-0.769,-0.134
79.130,-23.173,-1004.867,0.133,-0.771,-0.071
78.665,-21.800,-1006.185,0.248,-0.717,-0.076
80.071,-23.476,-1004.207,0.353,-0.685,-0.018
78.923,-24.065,-1004.652,0.303,-0.714,-0.022
77.890,-24.318,-1005.962,0.302,-0.685,-0.092
79.580,-25.009,-1004.543,0.349,-0.721,-0.055
79.877,-23.818,-1005.230,0.269,-0.774,-0.081
79.000,-24.000,-1006.000,0.280,-0.770,-0.140
78.999,-24.172,-1006.000,0.285,-0.767,-0.140
78.962,-23.032,-1005.374,0.274,-0.816,-0.142
79.064,-23.570,-1004.474,0.282,-0.863,-0.136
78.872,-24.153,-1005.127,0.302,-0.792,-0.148
79.113,-23.892,-1004.528,0.359,-0.786,-0.120
78.889,-24.137,-1005.221,0.247,-0.847,-0.060
79.051,-25.066,-1004.897,0.214,-0.840,-0.074
79.069,-25.072,-1004.848,0.217,-0.904,-0.136
78.696,-24.083,-1006.325,0.136,-0.926,-0.150
80.154,-24.082,-1003.387,0.198,-0.850,-0.089
78.645,-23.426,-1004.063,0.177,-0.846,-0.064
78.596,-23.138,-1006.162,0.132,-0.815,-0.072
79.980,-24.271,-1004.471,0.139,-0.761,-0.070
77.672,-23.884,-1005.208,0.144,-0.773,-0.069
78.000,-24.000,-1005.000,0.140,-0.770,-0.070
79.005,-24.157,-1004.772,0.015,-0.768,-0.133
78.948,-23.046,-1006.058,-0.011,-0.773,-0.107
79.009,-23.566,-1005.050,0.003,-0.765,-0.001
79.061,-24.140,-1005.138,0.022,-0.778,-0.034
78.639,-23.933,-1006.046,0.086,-0.751,-0.076
78.126,-24.026,-1005.809,0.064,-0.689,-0.069
80.126,-23.990,-1004.945,0.070,-0.704,-0.070
79.206,-23.977,-1004.937,0.007,-0.767,-0.069
77.775,-24.744,-1005.897,-0.015,-0.774,-0.072
78.947,-25.323,-1005.325,0.023,-0.765,-0.064
78.762,-24.201,-1004.409,-0.053,-0.775,-0.082
79.331,-24.375,-1005.415,-0.064,-0.764,-0.038
78.503,-24.949,-1005.816,-0.081,-0.777,-0.005
78.197,-23.855,-1004.904,-0.058,-0.761,-0.080
80.000,-24.000,-1005.000,-0.000,-0.700,-0.070
79.216,-24.089,-1005.029,-0.065,-0.756,-0.063
78.720,-23.795,-1004.931,-0.027,-0.790,-0.086
79.737,-24.717,-1004.886,0.018,-0.716,-0.015
79.797,-24.982,-1004.670,-0.013,-0.699,-0.024
78.392,-25.257,-1005.148,0.010,-0.697,-0.085
78.155,-26.061,-1006.011,-0.006,-0.703,-0.063
79.027,-24.864,-1004.893,0.002,-0.699,-0.072
78.986,-23.986,-1004.890,0.002,-0.698,-0.074
79.185,-24.116,-1006.043,-0.008,-0.706,-0.011
77.521,-23.717,-1005.057,0.017,-0.686,0.010
77.553,-24.788,-1004.868,-0.051,-0.746,-0.034
79.718,-24.581,-1004.388,-0.050,-0.757,-0.088
78.376,-24.115,-1004.048,0.011,-0.675,-0.048
78.168,-25.048,-1005.137,-0.003,-0.625,0.003
79.000,-24.000,-1005.000,-0.000,-0.630,0.000
78.902,-23.857,-1004.875,-0.002,-0.693,0.001
79.858,-24.282,-1005.841,0.046,-0.705,-0.004
79.587,-23.159,-1005.413,0.091,-0.697,0.012
78.316,-23.366,-1004.382,0.030,-0.701,-0.038
78.139,-24.186,-1005.376,-0.004,-0.700,-0.061
79.204,-23.908,-1005.839,0.001,-0.699,0.013
78.940,-24.032,-1004.972,0.000,-0.701,-0.003
78.936,-24.039,-1005.010,0.000,-0.701,-0.003
79.237,-23.823,-1004.850,-0.001,-0.693,0.007
78.073,-24.863,-1005.715,0.001,-0.749,-0.012
78.162,-24.518,-1004.901,-0.002,-0.777,0.019
77.660,-23.905,-1003.602,0.003,-0.768,-0.039
78.504,-23.838,-1005.631,-0.004,-0.769,-0.058
78.775,-22.952,-1005.843,0.006,-0.772,0.002
77.000,-24.000,-1005.000,0.070,-0.770,-0.070
78.677,-24.142,-1005.730,0.076,-0.704,-0.082
79.301,-23.768,-1006.414,0.053,-0.747,-0.008
78.690,-24.293,-1004.260,0.154,-0.757,-0.001
79.517,-23.641,-1004.737,0.234,-0.640,0.004
80.174,-24.509,-1005.961,0.193,-0.642,-0.005
79.773,-24.954,-1004.773,0.223,-0.617,0.004
79.013,-25.046,-1005.130,0.202,-0.639,-0.002
79.955,-25.082,-1006.910,0.076,-0.766,-0.003
79.302,-23.979,-1005.621,0.066,-0.717,0.012
78.786,-24.783,-1004.728,0.040,-0.723,-0.061
78.792,-24.574,-1006.727,-0.058,-0.809,-0.034
77.539,-23.847,-1003.367,-0.048,-0.716,-0.009
78.325,-24.000,-1006.332,0.012,-0.723,-0.088
77.814,-24.096,-1004.244,-0.005,-0.766,-0.063
78.000,-25.000,-1005.000,0.000,-0.700,-0.070
79.103,-24.180,-1006.788,0.005,-0.756,-0.076
77.995,-23.829,-1004.152,-0.013,-0.788,-0.059
78.742,-24.093,-1008.099,0.050,-0.719,-0.089
78.573,-24.245,-1001.425,0.071,-0.697,-0.025
78.067,-25.300,-1008.257,0.076,-0.699,-0.015
79.237,-24.855,-1002.504,0.058,-0.707,-0.079
78.910,-25.024,-1006.018,-0.003,-0.775,-0.068
77.991,-24.130,-1006.101,-0.001,-0.776,-0.069
78.849,-23.641,-1001.438,0.001,-0.705,-0.072
78.438,-25.093,-1010.622,0.000,-0.703,-0.067
78.209,-24.289,-998.023,-0.001,-0.689,-0.073
79.044,-24.082,-1013.675,0.002,-0.730,-0.068
77.904,-23.842,-998.025,-0.001,-0.774,-0.072
80.366,-24.161,-1010.436,-0.003,-0.774,-0.069
79.000,-25.000,-1005.000,-0.070,-0.840,-0.070
79.501,-25.010,-1000.252,-0.080,-0.850,-0.071
79.531,-24.408,-1016.293,-0.048,-0.777,-0.068
76.778,-23.612,-987.187,-0.109,-0.806,-0.073
81.100,-24.370,-1028.026,0.022,-0.836,-0.067
77.049,-23.814,-984.720,0.047,-0.737,-0.073
80.480,-25.493,-1020.960,0.010,-0.792,-0.067
78.392,-24.817,-998.912,0.069,-0.760,-0.072
78.255,-24.783,-996.100,0.001,-0.696,-0.073
81.713,-25.775,-1038.964,0.060,-0.721,-0.012
73.308,-23.407,-935.388,0.027,-0.652,0.007
90.120,-27.836,-1145.773,0.022,-0.796,-0.005
48.542,-14.611,-619.655,0.070,-0.432,0.003
